#HD26169                                                     
#                                                            
#  BESSELL 2008 from Heap-Lindler STIS standards             
# wavelength  ABmag  band
   3200.00   11.167  2.00
   3202.00   11.156  2.00
   3204.00   11.125  2.00
   3206.00   11.091  2.00
   3208.00   11.086  2.00
   3210.00   11.137  2.00
   3212.00   11.174  2.00
   3214.00   11.179  2.00
   3216.00   11.140  2.00
   3218.00   11.112  2.00
   3220.00   11.109  2.00
   3222.00   11.123  2.00
   3224.00   11.131  2.00
   3226.00   11.149  2.00
   3228.00   11.165  2.00
   3230.00   11.167  2.00
   3232.00   11.162  2.00
   3234.00   11.154  2.00
   3236.00   11.127  2.00
   3238.00   11.098  2.00
   3240.00   11.083  2.00
   3242.00   11.063  2.00
   3244.00   11.033  2.00
   3246.00   11.025  2.00
   3248.00   11.047  2.00
   3250.00   11.070  2.00
   3252.00   11.059  2.00
   3254.00   11.032  2.00
   3256.00   10.980  2.00
   3258.00   10.925  2.00
   3260.00   10.884  2.00
   3262.00   10.882  2.00
   3264.00   10.895  2.00
   3266.00   10.889  2.00
   3268.00   10.876  2.00
   3270.00   10.878  2.00
   3272.00   10.891  2.00
   3274.00   10.908  2.00
   3276.00   10.925  2.00
   3278.00   10.956  2.00
   3280.00   10.947  2.00
   3282.00   10.912  2.00
   3284.00   10.874  2.00
   3286.00   10.866  2.00
   3288.00   10.841  2.00
   3290.00   10.806  2.00
   3292.00   10.778  2.00
   3294.00   10.775  2.00
   3296.00   10.777  2.00
   3298.00   10.775  2.00
   3300.00   10.771  2.00
   3302.00   10.778  2.00
   3304.00   10.797  2.00
   3306.00   10.813  2.00
   3308.00   10.808  2.00
   3310.00   10.795  2.00
   3312.00   10.787  2.00
   3314.00   10.785  2.00
   3316.00   10.775  2.00
   3318.00   10.768  2.00
   3320.00   10.775  2.00
   3322.00   10.788  2.00
   3324.00   10.787  2.00
   3326.00   10.783  2.00
   3328.00   10.784  2.00
   3330.00   10.787  2.00
   3332.00   10.780  2.00
   3334.00   10.784  2.00
   3336.00   10.802  2.00
   3338.00   10.812  2.00
   3340.00   10.813  2.00
   3342.00   10.797  2.00
   3344.00   10.776  2.00
   3346.00   10.774  2.00
   3348.00   10.799  2.00
   3350.00   10.811  2.00
   3352.00   10.793  2.00
   3354.00   10.754  2.00
   3356.00   10.747  2.00
   3358.00   10.782  2.00
   3360.00   10.841  2.00
   3362.00   10.847  2.00
   3364.00   10.800  2.00
   3366.00   10.772  2.00
   3368.00   10.787  2.00
   3370.00   10.828  2.00
   3372.00   10.834  2.00
   3374.00   10.805  2.00
   3376.00   10.748  2.00
   3378.00   10.731  2.00
   3380.00   10.744  2.00
   3382.00   10.752  2.00
   3384.00   10.725  2.00
   3386.00   10.695  2.00
   3388.00   10.686  2.00
   3390.00   10.694  2.00
   3392.00   10.705  2.00
   3394.00   10.703  2.00
   3396.00   10.678  2.00
   3398.00   10.642  2.00
   3400.00   10.626  2.00
   3402.00   10.640  2.00
   3404.00   10.670  2.00
   3406.00   10.694  2.00
   3408.00   10.702  2.00
   3410.00   10.703  2.00
   3412.00   10.700  2.00
   3414.00   10.696  2.00
   3416.00   10.686  2.00
   3418.00   10.656  2.00
   3420.00   10.629  2.00
   3422.00   10.630  2.00
   3424.00   10.650  2.00
   3426.00   10.653  2.00
   3428.00   10.623  2.00
   3430.00   10.608  2.00
   3432.00   10.595  2.00
   3434.00   10.595  2.00
   3436.00   10.590  2.00
   3438.00   10.612  2.00
   3440.00   10.660  2.00
   3442.00   10.698  2.00
   3444.00   10.700  2.00
   3446.00   10.656  2.00
   3448.00   10.615  2.00
   3450.00   10.595  2.00
   3452.00   10.599  2.00
   3454.00   10.589  2.00
   3456.00   10.575  2.00
   3458.00   10.572  2.00
   3460.00   10.586  2.00
   3462.00   10.595  2.00
   3464.00   10.586  2.00
   3466.00   10.574  2.00
   3468.00   10.564  2.00
   3470.00   10.561  2.00
   3472.00   10.573  2.00
   3474.00   10.612  2.00
   3476.00   10.647  2.00
   3478.00   10.632  2.00
   3480.00   10.584  2.00
   3482.00   10.556  2.00
   3484.00   10.547  2.00
   3486.00   10.539  2.00
   3488.00   10.550  2.00
   3490.00   10.577  2.00
   3492.00   10.594  2.00
   3494.00   10.592  2.00
   3496.00   10.587  2.00
   3498.00   10.573  2.00
   3500.00   10.544  2.00
   3502.00   10.527  2.00
   3504.00   10.528  2.00
   3506.00   10.530  2.00
   3508.00   10.518  2.00
   3510.00   10.525  2.00
   3512.00   10.545  2.00
   3514.00   10.556  2.00
   3516.00   10.534  2.00
   3518.00   10.521  2.00
   3520.00   10.534  2.00
   3522.00   10.558  2.00
   3524.00   10.588  2.00
   3526.00   10.602  2.00
   3528.00   10.584  2.00
   3530.00   10.537  2.00
   3532.00   10.495  2.00
   3534.00   10.475  2.00
   3536.00   10.465  2.00
   3538.00   10.455  2.00
   3540.00   10.445  2.00
   3542.00   10.444  2.00
   3544.00   10.442  2.00
   3546.00   10.436  2.00
   3548.00   10.425  2.00
   3550.00   10.423  2.00
   3552.00   10.428  2.00
   3554.00   10.439  2.00
   3556.00   10.442  2.00
   3558.00   10.436  2.00
   3560.00   10.426  2.00
   3562.00   10.422  2.00
   3564.00   10.439  2.00
   3566.00   10.470  2.00
   3568.00   10.495  2.00
   3570.00   10.510  2.00
   3572.00   10.514  2.00
   3574.00   10.505  2.00
   3576.00   10.475  2.00
   3578.00   10.454  2.00
   3580.00   10.453  2.00
   3582.00   10.470  2.00
   3584.00   10.501  2.00
   3586.00   10.538  2.00
   3588.00   10.548  2.00
   3590.00   10.514  2.00
   3592.00   10.461  2.00
   3594.00   10.428  2.00
   3596.00   10.404  2.00
   3598.00   10.382  2.00
   3600.00   10.372  2.00
   3602.00   10.391  2.00
   3604.00   10.416  2.00
   3606.00   10.429  2.00
   3608.00   10.432  2.00
   3610.00   10.445  2.00
   3612.00   10.446  2.00
   3614.00   10.427  2.00
   3616.00   10.408  2.00
   3618.00   10.415  2.00
   3620.00   10.422  2.00
   3622.00   10.406  2.00
   3624.00   10.370  2.00
   3626.00   10.343  2.00
   3628.00   10.345  2.00
   3630.00   10.379  2.00
   3632.00   10.414  2.00
   3634.00   10.417  2.00
   3636.00   10.389  2.00
   3638.00   10.363  2.00
   3640.00   10.356  2.00
   3642.00   10.364  2.00
   3644.00   10.381  2.00
   3646.00   10.393  2.00
   3648.00   10.393  2.00
   3650.00   10.377  2.00
   3652.00   10.352  2.00
   3654.00   10.321  2.00
   3656.00   10.297  2.00
   3658.00   10.285  2.00
   3660.00   10.285  2.00
   3662.00   10.292  2.00
   3664.00   10.289  2.00
   3666.00   10.284  2.00
   3668.00   10.281  2.00
   3670.00   10.287  2.00
   3672.00   10.290  2.00
   3674.00   10.284  2.00
   3676.00   10.281  2.00
   3678.00   10.285  2.00
   3680.00   10.293  2.00
   3682.00   10.291  2.00
   3684.00   10.298  2.00
   3686.00   10.303  2.00
   3688.00   10.295  2.00
   3690.00   10.264  2.00
   3692.00   10.235  2.00
   3694.00   10.221  2.00
   3696.00   10.221  2.00
   3698.00   10.201  2.00
   3700.00   10.175  2.00
   3702.00   10.176  2.00
   3704.00   10.229  2.00
   3706.00   10.261  2.00
   3708.00   10.246  2.00
   3710.00   10.223  2.00
   3712.00   10.208  2.00
   3714.00   10.165  2.00
   3716.00   10.104  2.00
   3718.00   10.097  2.00
   3720.00   10.165  2.00
   3722.00   10.233  2.00
   3724.00   10.213  2.00
   3726.00   10.136  2.00
   3728.00   10.079  2.00
   3730.00   10.083  2.00
   3732.00   10.144  2.00
   3734.00   10.237  2.00
   3736.00   10.275  2.00
   3738.00   10.210  2.00
   3740.00   10.104  2.00
   3742.00   10.050  2.00
   3744.00   10.064  2.00
   3746.00   10.125  2.00
   3748.00   10.199  2.00
   3750.00   10.230  2.00
   3752.00   10.177  2.00
   3754.00   10.079  2.00
   3756.00   10.024  2.00
   3758.00   10.032  2.00
   3760.00   10.053  2.00
   3762.00   10.044  2.00
   3764.00   10.019  2.00
   3766.00   10.019  2.00
   3768.00   10.060  2.00
   3770.00   10.108  2.00
   3772.00   10.108  2.00
   3774.00   10.069  2.00
   3776.00   10.015  2.00
   3778.00    9.971  2.00
   3780.00    9.928  2.00
   3782.00    9.911  2.00
   3784.00    9.925  2.00
   3786.00    9.948  2.00
   3788.00    9.969  2.00
   3790.00    9.971  2.00
   3792.00    9.978  2.00
   3794.00   10.008  2.00
   3796.00   10.079  2.00
   3798.00   10.140  2.00
   3800.00   10.120  2.00
   3802.00   10.031  2.00
   3804.00    9.955  2.00
   3806.00    9.929  2.00
   3808.00    9.920  2.00
   3810.00    9.907  2.00
   3812.00    9.911  2.00
   3814.00    9.931  2.00
   3816.00    9.945  2.00
   3818.00    9.939  2.00
   3820.00    9.933  2.00
   3822.00    9.939  2.00
   3824.00    9.949  2.00
   3826.00    9.958  2.00
   3828.00    9.962  2.00
   3830.00    9.976  2.00
   3832.00   10.023  2.00
   3834.00   10.099  2.00
   3836.00   10.146  2.00
   3838.00   10.116  2.00
   3840.00   10.039  2.00
   3842.00    9.966  2.00
   3844.00    9.913  2.00
   3846.00    9.876  2.00
   3848.00    9.858  2.00
   3850.00    9.854  2.00
   3852.00    9.850  2.00
   3854.00    9.845  2.00
   3856.00    9.853  2.00
   3858.00    9.871  2.00
   3860.00    9.880  2.00
   3862.00    9.857  2.00
   3864.00    9.830  2.00
   3866.00    9.813  2.00
   3868.00    9.819  2.00
   3870.00    9.847  2.00
   3872.00    9.899  2.00
   3874.00    9.937  2.00
   3876.00    9.941  2.00
   3878.00    9.922  2.00
   3880.00    9.897  2.00
   3882.00    9.873  2.00
   3884.00    9.881  2.00
   3886.00    9.947  2.00
   3888.00   10.031  2.00
   3890.00   10.057  2.00
   3892.00   10.006  2.00
   3894.00    9.949  2.00
   3896.00    9.919  2.00
   3898.00    9.908  2.00
   3900.00    9.895  2.00
   3902.00    9.884  2.00
   3904.00    9.880  2.00
   3906.00    9.873  2.00
   3908.00    9.853  2.00
   3910.00    9.826  2.00
   3912.00    9.811  2.00
   3914.00    9.810  2.00
   3916.00    9.815  2.00
   3918.00    9.827  2.00
   3920.00    9.841  2.00
   3922.00    9.845  2.00
   3924.00    9.838  2.00
   3926.00    9.858  2.00
   3928.00    9.955  2.00
   3930.00   10.175  2.00
   3932.00   10.536  2.00
   3934.00   10.856  2.00
   3936.00   10.740  2.00
   3938.00   10.335  2.00
   3940.00   10.030  2.00
   3942.00    9.891  2.00
   3944.00    9.841  2.00
   3946.00    9.815  2.00
   3948.00    9.792  2.00
   3950.00    9.785  2.00
   3952.00    9.782  2.00
   3954.00    9.778  2.00
   3956.00    9.771  2.00
   3958.00    9.768  2.00
   3960.00    9.780  2.00
   3962.00    9.824  2.00
   3964.00    9.935  2.00
   3966.00   10.172  2.00
   3968.00   10.505  2.00
   3970.00   10.643  2.00
   3972.00   10.388  2.00
   3974.00   10.062  2.00
   3976.00    9.866  2.00
   3978.00    9.777  2.00
   3980.00    9.749  2.00
   3982.00    9.748  2.00
   3984.00    9.744  2.00
   3986.00    9.730  2.00
   3988.00    9.711  2.00
   3990.00    9.698  2.00
   3992.00    9.689  2.00
   3994.00    9.688  2.00
   3996.00    9.700  2.00
   3998.00    9.711  2.00
   4000.00    9.708  2.00
   4002.00    9.693  2.00
   4004.00    9.686  2.00
   4006.00    9.687  2.00
   4008.00    9.683  2.00
   4010.00    9.670  2.00
   4012.00    9.662  2.00
   4014.00    9.664  2.00
   4016.00    9.665  2.00
   4018.00    9.662  2.00
   4020.00    9.657  2.00
   4022.00    9.659  2.00
   4024.00    9.665  2.00
   4026.00    9.665  2.00
   4028.00    9.663  2.00
   4030.00    9.670  2.00
   4032.00    9.686  2.00
   4034.00    9.691  2.00
   4036.00    9.672  2.00
   4038.00    9.642  2.00
   4040.00    9.624  2.00
   4042.00    9.628  2.00
   4044.00    9.647  2.00
   4046.00    9.660  2.00
   4048.00    9.650  2.00
   4050.00    9.627  2.00
   4052.00    9.612  2.00
   4054.00    9.612  2.00
   4056.00    9.617  2.00
   4058.00    9.619  2.00
   4060.00    9.621  2.00
   4062.00    9.630  2.00
   4064.00    9.643  2.00
   4066.00    9.650  2.00
   4068.00    9.643  2.00
   4070.00    9.637  2.00
   4072.00    9.636  2.00
   4074.00    9.642  2.00
   4076.00    9.652  2.00
   4078.00    9.654  2.00
   4080.00    9.641  2.00
   4082.00    9.616  2.00
   4084.00    9.602  2.00
   4086.00    9.595  2.00
   4088.00    9.587  2.00
   4090.00    9.579  2.00
   4092.00    9.578  2.00
   4094.00    9.588  2.00
   4096.00    9.602  2.00
   4098.00    9.635  2.00
   4100.00    9.706  2.00
   4102.00    9.772  2.00
   4104.00    9.762  2.00
   4106.00    9.684  2.00
   4108.00    9.619  2.00
   4110.00    9.593  2.00
   4112.00    9.580  2.00
   4114.00    9.566  2.00
   4116.00    9.562  2.00
   4118.00    9.569  2.00
   4120.00    9.580  2.00
   4122.00    9.582  2.00
   4124.00    9.575  2.00
   4126.00    9.566  2.00
   4128.00    9.563  2.00
   4130.00    9.571  2.00
   4132.00    9.583  2.00
   4134.00    9.586  2.00
   4136.00    9.571  2.00
   4138.00    9.551  2.00
   4140.00    9.544  2.00
   4142.00    9.553  2.00
   4144.00    9.565  2.00
   4146.00    9.565  2.00
   4148.00    9.555  2.00
   4150.00    9.550  2.00
   4152.00    9.554  2.00
   4154.00    9.558  2.00
   4156.00    9.557  2.00
   4158.00    9.549  2.00
   4160.00    9.542  2.00
   4162.00    9.540  2.00
   4164.00    9.536  2.00
   4166.00    9.532  2.00
   4168.00    9.531  2.00
   4170.00    9.539  2.00
   4172.00    9.556  2.00
   4174.00    9.573  2.00
   4176.00    9.579  2.00
   4178.00    9.567  2.00
   4180.00    9.554  2.00
   4182.00    9.546  2.00
   4184.00    9.546  2.00
   4186.00    9.550  2.00
   4188.00    9.551  2.00
   4190.00    9.543  2.00
   4192.00    9.531  2.00
   4194.00    9.520  2.00
   4196.00    9.525  2.00
   4198.00    9.535  2.00
   4200.00    9.548  2.00
   4202.00    9.548  2.00
   4204.00    9.543  2.00
   4206.00    9.536  2.00
   4208.00    9.529  2.00
   4210.00    9.528  2.00
   4212.00    9.527  2.00
   4214.00    9.535  2.00
   4216.00    9.543  2.00
   4218.00    9.540  2.00
   4220.00    9.521  2.00
   4222.00    9.506  2.00
   4224.00    9.524  2.00
   4226.00    9.551  2.00
   4228.00    9.555  2.00
   4230.00    9.529  2.00
   4232.00    9.508  2.00
   4234.00    9.511  2.00
   4236.00    9.523  2.00
   4238.00    9.523  2.00
   4240.00    9.511  2.00
   4242.00    9.506  2.00
   4244.00    9.509  2.00
   4246.00    9.519  2.00
   4248.00    9.536  2.00
   4250.00    9.544  2.00
   4252.00    9.537  2.00
   4254.00    9.524  2.00
   4256.00    9.515  2.00
   4258.00    9.509  2.00
   4260.00    9.506  2.00
   4262.00    9.505  2.00
   4264.00    9.493  2.00
   4266.00    9.482  2.00
   4268.00    9.491  2.00
   4270.00    9.517  2.00
   4272.00    9.538  2.00
   4274.00    9.541  2.00
   4276.00    9.525  2.00
   4278.00    9.511  2.00
   4280.00    9.511  2.00
   4282.00    9.521  2.00
   4284.00    9.530  2.00
   4286.00    9.541  2.00
   4288.00    9.561  2.00
   4290.00    9.580  2.00
   4292.00    9.582  2.00
   4294.00    9.576  2.00
   4296.00    9.588  2.00
   4298.00    9.635  2.00
   4300.00    9.692  2.00
   4302.00    9.725  2.00
   4304.00    9.730  2.00
   4306.00    9.736  2.00
   4308.00    9.758  2.00
   4310.00    9.772  2.00
   4312.00    9.742  2.00
   4314.00    9.656  2.00
   4316.00    9.549  2.00
   4318.00    9.468  2.00
   4320.00    9.443  2.00
   4322.00    9.473  2.00
   4324.00    9.514  2.00
   4326.00    9.523  2.00
   4328.00    9.488  2.00
   4330.00    9.445  2.00
   4332.00    9.426  2.00
   4334.00    9.428  2.00
   4336.00    9.462  2.00
   4338.00    9.540  2.00
   4340.00    9.627  2.00
   4342.00    9.639  2.00
   4344.00    9.563  2.00
   4346.00    9.478  2.00
   4348.00    9.439  2.00
   4350.00    9.440  2.00
   4352.00    9.455  2.00
   4354.00    9.463  2.00
   4356.00    9.454  2.00
   4358.00    9.439  2.00
   4360.00    9.425  2.00
   4362.00    9.413  2.00
   4364.00    9.407  2.00
   4366.00    9.409  2.00
   4368.00    9.412  2.00
   4370.00    9.415  2.00
   4372.00    9.426  2.00
   4374.00    9.440  2.00
   4376.00    9.446  2.00
   4378.00    9.437  2.00
   4380.00    9.427  2.00
   4382.00    9.438  2.00
   4384.00    9.458  2.00
   4386.00    9.459  2.00
   4388.00    9.440  2.00
   4390.00    9.421  2.00
   4392.00    9.418  2.00
   4394.00    9.424  2.00
   4396.00    9.428  2.00
   4398.00    9.427  2.00
   4400.00    9.420  2.00
   4402.00    9.414  2.00
   4404.00    9.407  2.00
   4406.00    9.402  2.00
   4408.00    9.395  2.00
   4410.00    9.384  2.00
   4412.00    9.377  2.00
   4414.00    9.381  2.00
   4416.00    9.392  2.00
   4418.00    9.394  2.00
   4420.00    9.379  2.00
   4422.00    9.361  2.00
   4424.00    9.355  2.00
   4426.00    9.361  2.00
   4428.00    9.362  2.00
   4430.00    9.356  2.00
   4432.00    9.353  2.00
   4434.00    9.355  2.00
   4436.00    9.349  2.00
   4438.00    9.334  2.00
   4440.00    9.331  2.00
   4442.00    9.346  2.00
   4444.00    9.363  2.00
   4446.00    9.357  2.00
   4448.00    9.343  2.00
   4450.00    9.333  2.00
   4452.00    9.333  2.00
   4454.00    9.337  2.00
   4456.00    9.339  2.00
   4458.00    9.337  2.00
   4460.00    9.332  2.00
   4462.00    9.329  2.00
   4464.00    9.323  2.00
   4466.00    9.321  2.00
   4468.00    9.325  2.00
   4470.00    9.326  2.00
   4472.00    9.313  2.00
   4474.00    9.298  2.00
   4476.00    9.291  2.00
   4478.00    9.291  2.00
   4480.00    9.298  2.00
   4482.00    9.305  2.00
   4484.00    9.302  2.00
   4486.00    9.292  2.00
   4488.00    9.288  2.00
   4490.00    9.291  2.00
   4492.00    9.295  2.00
   4494.00    9.300  2.00
   4496.00    9.300  2.00
   4498.00    9.295  2.00
   4500.00    9.291  2.00
   4502.00    9.292  2.00
   4504.00    9.288  2.00
   4506.00    9.279  2.00
   4508.00    9.273  2.00
   4510.00    9.268  2.00
   4512.00    9.265  2.00
   4514.00    9.265  2.00
   4516.00    9.266  2.00
   4518.00    9.269  2.00
   4520.00    9.268  2.00
   4522.00    9.268  2.00
   4524.00    9.269  2.00
   4526.00    9.274  2.00
   4528.00    9.280  2.00
   4530.00    9.288  2.00
   4532.00    9.293  2.00
   4534.00    9.296  2.00
   4536.00    9.289  2.00
   4538.00    9.271  2.00
   4540.00    9.254  2.00
   4542.00    9.249  2.00
   4544.00    9.250  2.00
   4546.00    9.254  2.00
   4548.00    9.265  2.00
   4550.00    9.274  2.00
   4552.00    9.274  2.00
   4554.00    9.267  2.00
   4556.00    9.260  2.00
   4558.00    9.252  2.00
   4560.00    9.242  2.00
   4562.00    9.239  2.00
   4564.00    9.240  2.00
   4566.00    9.238  2.00
   4568.00    9.237  2.00
   4570.00    9.243  2.00
   4572.00    9.250  2.00
   4574.00    9.247  2.00
   4576.00    9.236  2.00
   4578.00    9.228  2.00
   4580.00    9.226  2.00
   4582.00    9.228  2.00
   4584.00    9.233  2.00
   4586.00    9.233  2.00
   4588.00    9.227  2.00
   4590.00    9.221  2.00
   4592.00    9.217  2.00
   4594.00    9.212  2.00
   4596.00    9.205  2.00
   4598.00    9.203  2.00
   4600.00    9.207  2.00
   4602.00    9.212  2.00
   4604.00    9.214  2.00
   4606.00    9.207  2.00
   4608.00    9.199  2.00
   4610.00    9.193  2.00
   4612.00    9.193  2.00
   4614.00    9.196  2.00
   4616.00    9.199  2.00
   4618.00    9.197  2.00
   4620.00    9.192  2.00
   4622.00    9.188  2.00
   4624.00    9.186  2.00
   4626.00    9.190  2.00
   4628.00    9.193  2.00
   4630.00    9.194  2.00
   4632.00    9.190  2.00
   4634.00    9.189  2.00
   4636.00    9.191  2.00
   4638.00    9.193  2.00
   4640.00    9.189  2.00
   4642.00    9.184  2.00
   4644.00    9.184  2.00
   4646.00    9.189  2.00
   4648.00    9.191  2.00
   4650.00    9.189  2.00
   4652.00    9.185  2.00
   4654.00    9.185  2.00
   4656.00    9.184  2.00
   4658.00    9.179  2.00
   4660.00    9.170  2.00
   4662.00    9.163  2.00
   4664.00    9.159  2.00
   4666.00    9.163  2.00
   4668.00    9.168  2.00
   4670.00    9.170  2.00
   4672.00    9.166  2.00
   4674.00    9.161  2.00
   4676.00    9.159  2.00
   4678.00    9.158  2.00
   4680.00    9.158  2.00
   4682.00    9.156  2.00
   4684.00    9.152  2.00
   4686.00    9.148  2.00
   4688.00    9.148  2.00
   4690.00    9.150  2.00
   4692.00    9.150  2.00
   4694.00    9.150  2.00
   4696.00    9.150  2.00
   4698.00    9.153  2.00
   4700.00    9.159  2.00
   4702.00    9.164  2.00
   4704.00    9.164  2.00
   4706.00    9.159  2.00
   4708.00    9.151  2.00
   4710.00    9.146  2.00
   4712.00    9.142  2.00
   4714.00    9.137  2.00
   4716.00    9.135  2.00
   4718.00    9.133  2.00
   4720.00    9.131  2.00
   4722.00    9.125  2.00
   4724.00    9.120  2.00
   4726.00    9.118  2.00
   4728.00    9.122  2.00
   4730.00    9.124  2.00
   4732.00    9.124  2.00
   4734.00    9.125  2.00
   4736.00    9.126  2.00
   4738.00    9.125  2.00
   4740.00    9.124  2.00
   4742.00    9.121  2.00
   4744.00    9.118  2.00
   4746.00    9.113  2.00
   4748.00    9.110  2.00
   4750.00    9.108  2.00
   4752.00    9.112  2.00
   4754.00    9.114  2.00
   4756.00    9.115  2.00
   4758.00    9.112  2.00
   4760.00    9.110  2.00
   4762.00    9.113  2.00
   4764.00    9.117  2.00
   4766.00    9.116  2.00
   4768.00    9.106  2.00
   4770.00    9.101  2.00
   4772.00    9.100  2.00
   4774.00    9.103  2.00
   4776.00    9.100  2.00
   4778.00    9.098  2.00
   4780.00    9.098  2.00
   4782.00    9.101  2.00
   4784.00    9.101  2.00
   4786.00    9.102  2.00
   4788.00    9.100  2.00
   4790.00    9.097  2.00
   4792.00    9.090  2.00
   4794.00    9.087  2.00
   4796.00    9.088  2.00
   4798.00    9.091  2.00
   4800.00    9.090  2.00
   4802.00    9.087  2.00
   4804.00    9.083  2.00
   4806.00    9.077  2.00
   4808.00    9.072  2.00
   4810.00    9.071  2.00
   4812.00    9.071  2.00
   4814.00    9.071  2.00
   4816.00    9.068  2.00
   4818.00    9.068  2.00
   4820.00    9.071  2.00
   4822.00    9.079  2.00
   4824.00    9.083  2.00
   4826.00    9.081  2.00
   4828.00    9.077  2.00
   4830.00    9.075  2.00
   4832.00    9.074  2.00
   4834.00    9.071  2.00
   4836.00    9.067  2.00
   4838.00    9.067  2.00
   4840.00    9.066  2.00
   4842.00    9.064  2.00
   4844.00    9.062  2.00
   4846.00    9.061  2.00
   4848.00    9.065  2.00
   4850.00    9.068  2.00
   4852.00    9.071  2.00
   4854.00    9.075  2.00
   4856.00    9.091  2.00
   4858.00    9.142  2.00
   4860.00    9.227  2.00
   4862.00    9.282  2.00
   4864.00    9.242  2.00
   4866.00    9.153  2.00
   4868.00    9.095  2.00
   4870.00    9.084  2.00
   4872.00    9.085  2.00
   4874.00    9.083  2.00
   4876.00    9.079  2.00
   4878.00    9.076  2.00
   4880.00    9.073  2.00
   4882.00    9.067  2.00
   4884.00    9.065  2.00
   4886.00    9.065  2.00
   4888.00    9.070  2.00
   4890.00    9.078  2.00
   4892.00    9.080  2.00
   4894.00    9.068  2.00
   4896.00    9.051  2.00
   4898.00    9.043  2.00
   4900.00    9.044  2.00
   4902.00    9.047  2.00
   4904.00    9.047  2.00
   4906.00    9.043  2.00
   4908.00    9.039  2.00
   4910.00    9.036  2.00
   4912.00    9.030  2.00
   4914.00    9.030  2.00
   4916.00    9.033  2.00
   4918.00    9.047  2.00
   4920.00    9.056  2.00
   4922.00    9.059  2.00
   4924.00    9.052  2.00
   4926.00    9.039  2.00
   4928.00    9.026  2.00
   4930.00    9.020  2.00
   4932.00    9.028  2.00
   4934.00    9.038  2.00
   4936.00    9.042  2.00
   4938.00    9.043  2.00
   4940.00    9.040  2.00
   4942.00    9.039  2.00
   4944.00    9.031  2.00
   4946.00    9.027  2.00
   4948.00    9.023  2.00
   4950.00    9.022  2.00
   4952.00    9.019  2.00
   4954.00    9.021  2.00
   4956.00    9.030  2.00
   4958.00    9.037  2.00
   4960.00    9.030  2.00
   4962.00    9.015  2.00
   4964.00    9.007  2.00
   4966.00    9.008  2.00
   4968.00    9.007  2.00
   4970.00    9.005  2.00
   4972.00    9.004  2.00
   4974.00    9.002  2.00
   4976.00    9.003  2.00
   4978.00    9.009  2.00
   4980.00    9.020  2.00
   4982.00    9.029  2.00
   4984.00    9.030  2.00
   4986.00    9.022  2.00
   4988.00    9.013  2.00
   4990.00    9.009  2.00
   4992.00    9.010  2.00
   4994.00    9.011  2.00
   4996.00    9.007  2.00
   4998.00    9.003  2.00
   5000.00    9.002  2.00
   5002.00    9.004  2.00
   5004.00    9.008  2.00
   5006.00    9.014  2.00
   5008.00    9.015  2.00
   5010.00    9.014  2.00
   5012.00    9.013  2.00
   5014.00    9.016  2.00
   5016.00    9.018  2.00
   5018.00    9.019  2.00
   5020.00    9.016  2.00
   5022.00    9.008  2.00
   5024.00    9.000  2.00
   5026.00    8.994  2.00
   5028.00    8.990  2.00
   5030.00    8.985  2.00
   5032.00    8.984  2.00
   5034.00    8.988  2.00
   5036.00    8.994  2.00
   5038.00    9.003  2.00
   5040.00    9.013  2.00
   5042.00    9.015  2.00
   5044.00    9.003  2.00
   5046.00    8.986  2.00
   5048.00    8.981  2.00
   5050.00    8.986  2.00
   5052.00    8.989  2.00
   5054.00    8.983  2.00
   5056.00    8.976  2.00
   5058.00    8.970  2.00
   5060.00    8.966  2.00
   5062.00    8.963  2.00
   5064.00    8.969  2.00
   5066.00    8.969  2.00
   5068.00    8.967  2.00
   5070.00    8.959  2.00
   5072.00    8.960  2.00
   5074.00    8.959  2.00
   5076.00    8.963  2.00
   5078.00    8.967  2.00
   5080.00    8.974  2.00
   5082.00    8.975  2.00
   5084.00    8.970  2.00
   5086.00    8.963  2.00
   5088.00    8.961  2.00
   5090.00    8.956  2.00
   5092.00    8.953  2.00
   5094.00    8.953  2.00
   5096.00    8.956  2.00
   5098.00    8.958  2.00
   5100.00    8.955  2.00
   5102.00    8.952  2.00
   5104.00    8.949  2.00
   5106.00    8.952  2.00
   5108.00    8.958  2.00
   5110.00    8.961  2.00
   5112.00    8.956  2.00
   5114.00    8.946  2.00
   5116.00    8.936  2.00
   5118.00    8.931  2.00
   5120.00    8.931  2.00
   5122.00    8.937  2.00
   5124.00    8.944  2.00
   5126.00    8.950  2.00
   5128.00    8.951  2.00
   5130.00    8.947  2.00
   5132.00    8.940  2.00
   5134.00    8.936  2.00
   5136.00    8.942  2.00
   5138.00    8.951  2.00
   5140.00    8.954  2.00
   5142.00    8.950  2.00
   5144.00    8.946  2.00
   5146.00    8.940  2.00
   5148.00    8.938  2.00
   5150.00    8.938  2.00
   5152.00    8.940  2.00
   5154.00    8.941  2.00
   5156.00    8.939  2.00
   5158.00    8.933  2.00
   5160.00    8.927  2.00
   5162.00    8.926  2.00
   5164.00    8.940  2.00
   5166.00    8.969  2.00
   5168.00    8.998  2.00
   5170.00    9.009  2.00
   5172.00    8.997  2.00
   5174.00    8.971  2.00
   5176.00    8.942  2.00
   5178.00    8.922  2.00
   5180.00    8.921  2.00
   5182.00    8.937  2.00
   5184.00    8.950  2.00
   5186.00    8.949  2.00
   5188.00    8.938  2.00
   5190.00    8.935  2.00
   5192.00    8.938  2.00
   5194.00    8.940  2.00
   5196.00    8.936  2.00
   5198.00    8.927  2.00
   5200.00    8.923  2.00
   5202.00    8.929  2.00
   5204.00    8.939  2.00
   5206.00    8.947  2.00
   5208.00    8.944  2.00
   5210.00    8.933  2.00
   5212.00    8.921  2.00
   5214.00    8.915  2.00
   5216.00    8.915  2.00
   5218.00    8.911  2.00
   5220.00    8.904  2.00
   5222.00    8.898  2.00
   5224.00    8.907  2.00
   5226.00    8.925  2.00
   5228.00    8.935  2.00
   5230.00    8.926  2.00
   5232.00    8.913  2.00
   5234.00    8.908  2.00
   5236.00    8.906  2.00
   5238.00    8.903  2.00
   5240.00    8.903  2.00
   5242.00    8.902  2.00
   5244.00    8.899  2.00
   5246.00    8.897  2.00
   5248.00    8.898  2.00
   5250.00    8.898  2.00
   5252.00    8.896  2.00
   5254.00    8.890  2.00
   5256.00    8.884  2.00
   5258.00    8.877  2.00
   5260.00    8.879  2.00
   5262.00    8.886  2.00
   5264.00    8.898  2.00
   5266.00    8.908  2.00
   5268.00    8.922  2.00
   5270.00    8.927  2.00
   5272.00    8.917  2.00
   5274.00    8.896  2.00
   5276.00    8.882  2.00
   5278.00    8.875  2.00
   5280.00    8.872  2.00
   5282.00    8.874  2.00
   5284.00    8.876  2.00
   5286.00    8.872  2.00
   5288.00    8.865  2.00
   5290.00    8.859  2.00
   5292.00    8.858  2.00
   5294.00    8.859  2.00
   5296.00    8.862  2.00
   5298.00    8.866  2.00
   5300.00    8.865  2.00
   5302.00    8.861  2.00
   5304.00    8.855  2.00
   5306.00    8.851  2.00
   5308.00    8.849  2.00
   5310.00    8.847  2.00
   5312.00    8.847  2.00
   5314.00    8.848  2.00
   5316.00    8.852  2.00
   5318.00    8.854  2.00
   5320.00    8.852  2.00
   5322.00    8.852  2.00
   5324.00    8.858  2.00
   5326.00    8.869  2.00
   5328.00    8.877  2.00
   5330.00    8.871  2.00
   5332.00    8.857  2.00
   5334.00    8.845  2.00
   5336.00    8.843  2.00
   5338.00    8.845  2.00
   5340.00    8.847  2.00
   5342.00    8.845  2.00
   5344.00    8.842  2.00
   5346.00    8.839  2.00
   5348.00    8.838  2.00
   5350.00    8.836  2.00
   5352.00    8.834  2.00
   5354.00    8.835  2.00
   5356.00    8.838  2.00
   5358.00    8.841  2.00
   5360.00    8.845  2.00
   5362.00    8.847  2.00
   5364.00    8.847  2.00
   5366.00    8.847  2.00
   5368.00    8.849  2.00
   5370.00    8.851  2.00
   5372.00    8.848  2.00
   5374.00    8.837  2.00
   5376.00    8.824  2.00
   5378.00    8.818  2.00
   5380.00    8.819  2.00
   5382.00    8.822  2.00
   5384.00    8.820  2.00
   5386.00    8.817  2.00
   5388.00    8.814  2.00
   5390.00    8.816  2.00
   5392.00    8.822  2.00
   5394.00    8.830  2.00
   5396.00    8.833  2.00
   5398.00    8.829  2.00
   5400.00    8.823  2.00
   5402.00    8.821  2.00
   5404.00    8.826  2.00
   5406.00    8.834  2.00
   5408.00    8.835  2.00
   5410.00    8.828  2.00
   5412.00    8.816  2.00
   5414.00    8.810  2.00
   5416.00    8.809  2.00
   5418.00    8.811  2.00
   5420.00    8.811  2.00
   5422.00    8.815  2.00
   5424.00    8.818  2.00
   5426.00    8.822  2.00
   5428.00    8.827  2.00
   5430.00    8.832  2.00
   5432.00    8.831  2.00
   5434.00    8.826  2.00
   5436.00    8.816  2.00
   5438.00    8.804  2.00
   5440.00    8.795  2.00
   5442.00    8.794  2.00
   5444.00    8.800  2.00
   5446.00    8.806  2.00
   5448.00    8.806  2.00
   5450.00    8.800  2.00
   5452.00    8.798  2.00
   5454.00    8.799  2.00
   5456.00    8.802  2.00
   5458.00    8.796  2.00
   5460.00    8.787  2.00
   5462.00    8.784  2.00
   5464.00    8.783  2.00
   5466.00    8.784  2.00
   5468.00    8.780  2.00
   5470.00    8.778  2.00
   5472.00    8.778  2.00
   5474.00    8.781  2.00
   5476.00    8.786  2.00
   5478.00    8.787  2.00
   5480.00    8.780  2.00
   5482.00    8.773  2.00
   5484.00    8.773  2.00
   5486.00    8.776  2.00
   5488.00    8.777  2.00
   5490.00    8.774  2.00
   5492.00    8.771  2.00
   5494.00    8.773  2.00
   5496.00    8.777  2.00
   5498.00    8.780  2.00
   5500.00    8.782  2.00
   5502.00    8.782  2.00
   5504.00    8.780  2.00
   5506.00    8.779  2.00
   5508.00    8.778  2.00
   5510.00    8.775  2.00
   5512.00    8.773  2.00
   5514.00    8.774  2.00
   5516.00    8.775  2.00
   5518.00    8.773  2.00
   5520.00    8.771  2.00
   5522.00    8.770  2.00
   5524.00    8.772  2.00
   5526.00    8.778  2.00
   5528.00    8.783  2.00
   5530.00    8.781  2.00
   5532.00    8.774  2.00
   5534.00    8.770  2.00
   5536.00    8.770  2.00
   5538.00    8.769  2.00
   5540.00    8.765  2.00
   5542.00    8.760  2.00
   5544.00    8.756  2.00
   5546.00    8.754  2.00
   5548.00    8.751  2.00
   5550.00    8.749  2.00
   5552.00    8.745  2.00
   5554.00    8.741  2.00
   5556.00    8.738  2.00
   5558.00    8.737  2.00
   5560.00    8.737  2.00
   5562.00    8.738  2.00
   5564.00    8.740  2.00
   5566.00    8.745  2.00
   5568.00    8.748  2.00
   5570.00    8.752  2.00
   5572.00    8.755  2.00
   5574.00    8.760  2.00
   5576.00    8.760  2.00
   5578.00    8.758  2.00
   5580.00    8.756  2.00
   5582.00    8.758  2.00
   5584.00    8.759  2.00
   5586.00    8.762  2.00
   5588.00    8.764  2.00
   5590.00    8.762  2.00
   5592.00    8.758  2.00
   5594.00    8.749  2.00
   5596.00    8.745  2.00
   5598.00    8.742  2.00
   5600.00    8.743  2.00
   5602.00    8.743  2.00
   5604.00    8.737  2.00
   5606.00    8.732  2.00
   5608.00    8.729  2.00
   5610.00    8.732  2.00
   5612.00    8.736  2.00
   5614.00    8.741  2.00
   5616.00    8.744  2.00
   5618.00    8.740  2.00
   5620.00    8.734  2.00
   5622.00    8.729  2.00
   5624.00    8.725  2.00
   5626.00    8.725  2.00
   5628.00    8.720  2.00
   5630.00    8.717  2.00
   5632.00    8.713  2.00
   5634.00    8.711  2.00
   5636.00    8.711  2.00
   5638.00    8.712  2.00
   5640.00    8.712  2.00
   5642.00    8.710  2.00
   5644.00    8.708  2.00
   5646.00    8.705  2.00
   5648.00    8.703  2.00
   5650.00    8.702  2.00
   5652.00    8.703  2.00
   5654.00    8.707  2.00
   5656.00    8.711  2.00
   5658.00    8.715  2.00
   5660.00    8.716  2.00
   5662.00    8.717  2.00
   5664.00    8.716  2.00
   5666.00    8.715  2.00
   5668.00    8.713  2.00
   5670.00    8.710  2.00
   5672.00    8.707  2.00
   5674.00    8.706  2.00
   5676.00    8.707  2.00
   5678.00    8.708  2.00
   5680.00    8.708  2.00
   5682.00    8.708  2.00
   5684.00    8.708  2.00
   5686.00    8.707  2.00
   5688.00    8.708  2.00
   5690.00    8.711  2.00
   5692.00    8.710  2.00
   5694.00    8.706  2.00
   5696.00    8.704  2.00
   5698.00    8.708  2.00
   5700.00    8.710  2.00
   5702.00    8.708  2.00
   5704.00    8.705  2.00
   5706.00    8.704  2.00
   5708.00    8.706  2.00
   5710.00    8.707  2.00
   5712.00    8.706  2.00
   5714.00    8.705  2.00
   5716.00    8.702  2.00
   5718.00    8.698  2.00
   5720.00    8.695  2.00
   5722.00    8.694  2.00
   5724.00    8.690  2.00
   5726.00    8.687  2.00
   5728.00    8.687  2.00
   5730.00    8.689  2.00
   5732.00    8.687  2.00
   5734.00    8.683  2.00
   5736.00    8.680  2.00
   5738.00    8.681  2.00
   5740.00    8.684  2.00
   5742.00    8.686  2.00
   5744.00    8.688  2.00
   5746.00    8.690  2.00
   5748.00    8.691  2.00
   5750.00    8.691  2.00
   5752.00    8.693  2.00
   5754.00    8.695  2.00
   5756.00    8.694  2.00
   5758.00    8.691  2.00
   5760.00    8.685  2.00
   5762.00    8.682  2.00
   5764.00    8.680  2.00
   5766.00    8.680  2.00
   5768.00    8.681  2.00
   5770.00    8.684  2.00
   5772.00    8.685  2.00
   5774.00    8.686  2.00
   5776.00    8.683  2.00
   5778.00    8.684  2.00
   5780.00    8.686  2.00
   5782.00    8.690  2.00
   5784.00    8.687  2.00
   5786.00    8.683  2.00
   5788.00    8.678  2.00
   5790.00    8.677  2.00
   5792.00    8.674  2.00
   5794.00    8.674  2.00
   5796.00    8.675  2.00
   5798.00    8.674  2.00
   5800.00    8.669  2.00
   5802.00    8.662  2.00
   5804.00    8.656  2.00
   5806.00    8.653  2.00
   5808.00    8.655  2.00
   5810.00    8.654  2.00
   5812.00    8.654  2.00
   5814.00    8.655  2.00
   5816.00    8.659  2.00
   5818.00    8.660  2.00
   5820.00    8.662  2.00
   5822.00    8.665  2.00
   5824.00    8.667  2.00
   5826.00    8.667  2.00
   5828.00    8.666  2.00
   5830.00    8.667  2.00
   5832.00    8.665  2.00
   5834.00    8.662  2.00
   5836.00    8.659  2.00
   5838.00    8.655  2.00
   5840.00    8.656  2.00
   5842.00    8.659  2.00
   5844.00    8.660  2.00
   5846.00    8.658  2.00
   5848.00    8.654  2.00
   5850.00    8.648  2.00
   5852.00    8.644  2.00
   5854.00    8.640  2.00
   5856.00    8.636  2.00
   5858.00    8.631  2.00
   5860.00    8.629  2.00
   5862.00    8.628  2.00
   5864.00    8.627  2.00
   5866.00    8.629  2.00
   5868.00    8.633  2.00
   5870.00    8.637  2.00
   5872.00    8.641  2.00
   5874.00    8.642  2.00
   5876.00    8.643  2.00
   5878.00    8.644  2.00
   5880.00    8.647  2.00
   5882.00    8.651  2.00
   5884.00    8.658  2.00
   5886.00    8.669  2.00
   5888.00    8.692  2.00
   5890.00    8.714  2.00
   5892.00    8.722  2.00
   5894.00    8.715  2.00
   5896.00    8.708  2.00
   5898.00    8.703  2.00
   5900.00    8.691  2.00
   5902.00    8.672  2.00
   5904.00    8.657  2.00
   5906.00    8.649  2.00
   5908.00    8.645  2.00
   5910.00    8.642  2.00
   5912.00    8.641  2.00
   5914.00    8.640  2.00
   5916.00    8.642  2.00
   5918.00    8.644  2.00
   5920.00    8.649  2.00
   5922.00    8.648  2.00
   5924.00    8.644  2.00
   5926.00    8.635  2.00
   5928.00    8.627  2.00
   5930.00    8.623  2.00
   5932.00    8.623  2.00
   5934.00    8.620  2.00
   5936.00    8.617  2.00
   5938.00    8.615  2.00
   5940.00    8.625  2.00
   5942.00    8.638  2.00
   5944.00    8.650  2.00
   5946.00    8.652  2.00
   5948.00    8.647  2.00
   5950.00    8.637  2.00
   5952.00    8.633  2.00
   5954.00    8.631  2.00
   5956.00    8.635  2.00
   5958.00    8.640  2.00
   5960.00    8.640  2.00
   5962.00    8.636  2.00
   5964.00    8.626  2.00
   5966.00    8.626  2.00
   5968.00    8.631  2.00
   5970.00    8.634  2.00
   5972.00    8.627  2.00
   5974.00    8.618  2.00
   5976.00    8.619  2.00
   5978.00    8.626  2.00
   5980.00    8.631  2.00
   5982.00    8.631  2.00
   5984.00    8.629  2.00
   5986.00    8.627  2.00
   5988.00    8.624  2.00
   5990.00    8.624  2.00
   5992.00    8.623  2.00
   5994.00    8.614  2.00
   5996.00    8.602  2.00
   5998.00    8.595  2.00
   6000.00    8.595  2.00
   6002.00    8.596  2.00
   6004.00    8.598  2.00
   6006.00    8.601  2.00
   6008.00    8.602  2.00
   6010.00    8.604  2.00
   6012.00    8.605  2.00
   6014.00    8.603  2.00
   6016.00    8.599  2.00
   6018.00    8.599  2.00
   6020.00    8.600  2.00
   6022.00    8.600  2.00
   6024.00    8.596  2.00
   6026.00    8.591  2.00
   6028.00    8.588  2.00
   6030.00    8.589  2.00
   6032.00    8.592  2.00
   6034.00    8.591  2.00
   6036.00    8.588  2.00
   6038.00    8.586  2.00
   6040.00    8.588  2.00
   6042.00    8.590  2.00
   6044.00    8.593  2.00
   6046.00    8.593  2.00
   6048.00    8.591  2.00
   6050.00    8.588  2.00
   6052.00    8.590  2.00
   6054.00    8.592  2.00
   6056.00    8.590  2.00
   6058.00    8.587  2.00
   6060.00    8.582  2.00
   6062.00    8.581  2.00
   6064.00    8.584  2.00
   6066.00    8.587  2.00
   6068.00    8.586  2.00
   6070.00    8.583  2.00
   6072.00    8.586  2.00
   6074.00    8.590  2.00
   6076.00    8.594  2.00
   6078.00    8.599  2.00
   6080.00    8.600  2.00
   6082.00    8.600  2.00
   6084.00    8.599  2.00
   6086.00    8.601  2.00
   6088.00    8.601  2.00
   6090.00    8.597  2.00
   6092.00    8.595  2.00
   6094.00    8.597  2.00
   6096.00    8.599  2.00
   6098.00    8.602  2.00
   6100.00    8.583  2.00
   6100.00    8.593  2.00
   6102.00    8.593  2.00
   6102.00    8.593  2.00
   6104.00    8.593  2.00
   6104.00    8.594  2.00
   6106.00    8.593  2.00
   6106.00    8.593  2.00
   6108.00    8.593  2.00
   6108.00    8.593  2.00
   6110.00    8.592  2.00
   6110.00    8.593  2.00
   6112.00    8.592  2.00
   6112.00    8.593  2.00
   6114.00    8.592  2.00
   6114.00    8.592  2.00
   6116.00    8.592  2.00
   6116.00    8.592  2.00
   6118.00    8.592  2.00
   6118.00    8.592  2.00
   6120.00    8.591  2.00
   6120.00    8.592  2.00
   6122.00    8.592  2.00
   6122.00    8.592  2.00
   6124.00    8.594  2.00
   6124.00    8.595  2.00
   6126.00    8.594  2.00
   6126.00    8.595  2.00
   6128.00    8.595  2.00
   6128.00    8.595  2.00
   6130.00    8.593  2.00
   6130.00    8.593  2.00
   6132.00    8.594  2.00
   6132.00    8.594  2.00
   6134.00    8.594  2.00
   6134.00    8.594  2.00
   6136.00    8.594  2.00
   6136.00    8.594  2.00
   6138.00    8.594  2.00
   6138.00    8.594  2.00
   6140.00    8.593  2.00
   6140.00    8.593  2.00
   6142.00    8.592  2.00
   6142.00    8.592  2.00
   6144.00    8.591  2.00
   6144.00    8.591  2.00
   6146.00    8.591  2.00
   6146.00    8.591  2.00
   6148.00    8.590  2.00
   6148.00    8.590  2.00
   6150.00    8.589  2.00
   6150.00    8.590  2.00
   6152.00    8.588  2.00
   6152.00    8.588  2.00
   6154.00    8.588  2.00
   6154.00    8.589  2.00
   6156.00    8.587  2.00
   6156.00    8.587  2.00
   6158.00    8.586  2.00
   6158.00    8.585  2.00
   6160.00    8.584  2.00
   6160.00    8.583  2.00
   6162.00    8.582  2.00
   6162.00    8.581  2.00
   6164.00    8.579  2.00
   6164.00    8.579  2.00
   6166.00    8.578  2.00
   6166.00    8.578  2.00
   6168.00    8.577  2.00
   6168.00    8.578  2.00
   6170.00    8.578  2.00
   6170.00    8.578  2.00
   6172.00    8.578  2.00
   6172.00    8.579  2.00
   6174.00    8.579  2.00
   6174.00    8.579  2.00
   6176.00    8.579  2.00
   6176.00    8.580  2.00
   6178.00    8.579  2.00
   6178.00    8.580  2.00
   6180.00    8.580  2.00
   6180.00    8.581  2.00
   6182.00    8.581  2.00
   6182.00    8.582  2.00
   6184.00    8.582  2.00
   6184.00    8.582  2.00
   6186.00    8.582  2.00
   6186.00    8.582  2.00
   6188.00    8.582  2.00
   6188.00    8.582  2.00
   6190.00    8.581  2.00
   6190.00    8.581  2.00
   6192.00    8.581  2.00
   6192.00    8.581  2.00
   6194.00    8.579  2.00
   6194.00    8.580  2.00
   6196.00    8.580  2.00
   6196.00    8.580  2.00
   6198.00    8.581  2.00
   6198.00    8.581  2.00
   6200.00    8.581  2.00
   6200.00    8.581  2.00
   6202.00    8.580  2.00
   6202.00    8.580  2.00
   6204.00    8.579  2.00
   6204.00    8.578  2.00
   6206.00    8.577  2.00
   6206.00    8.576  2.00
   6208.00    8.575  2.00
   6208.00    8.575  2.00
   6210.00    8.573  2.00
   6210.00    8.572  2.00
   6212.00    8.571  2.00
   6212.00    8.570  2.00
   6214.00    8.570  2.00
   6214.00    8.570  2.00
   6216.00    8.569  2.00
   6216.00    8.568  2.00
   6218.00    8.567  2.00
   6218.00    8.567  2.00
   6220.00    8.565  2.00
   6220.00    8.565  2.00
   6222.00    8.563  2.00
   6222.00    8.563  2.00
   6224.00    8.562  2.00
   6224.00    8.561  2.00
   6226.00    8.560  2.00
   6226.00    8.560  2.00
   6228.00    8.559  2.00
   6228.00    8.559  2.00
   6230.00    8.558  2.00
   6230.00    8.559  2.00
   6232.00    8.558  2.00
   6232.00    8.558  2.00
   6234.00    8.557  2.00
   6234.00    8.557  2.00
   6236.00    8.557  2.00
   6236.00    8.556  2.00
   6238.00    8.556  2.00
   6238.00    8.557  2.00
   6240.00    8.556  2.00
   6240.00    8.556  2.00
   6242.00    8.556  2.00
   6242.00    8.557  2.00
   6244.00    8.557  2.00
   6244.00    8.558  2.00
   6246.00    8.558  2.00
   6246.00    8.558  2.00
   6248.00    8.558  2.00
   6248.00    8.559  2.00
   6250.00    8.560  2.00
   6250.00    8.560  2.00
   6252.00    8.560  2.00
   6254.00    8.559  2.00
   6256.00    8.560  2.00
   6258.00    8.560  2.00
   6260.00    8.560  2.00
   6262.00    8.561  2.00
   6264.00    8.561  2.00
   6266.00    8.561  2.00
   6268.00    8.561  2.00
   6270.00    8.562  2.00
   6272.00    8.562  2.00
   6274.00    8.562  2.00
   6276.00    8.563  2.00
   6278.00    8.563  2.00
   6280.00    8.563  2.00
   6282.00    8.563  2.00
   6284.00    8.563  2.00
   6286.00    8.562  2.00
   6288.00    8.562  2.00
   6290.00    8.561  2.00
   6292.00    8.561  2.00
   6294.00    8.560  2.00
   6296.00    8.560  2.00
   6298.00    8.560  2.00
   6300.00    8.560  2.00
   6302.00    8.560  2.00
   6304.00    8.559  2.00
   6306.00    8.558  2.00
   6308.00    8.558  2.00
   6310.00    8.557  2.00
   6312.00    8.555  2.00
   6314.00    8.553  2.00
   6316.00    8.553  2.00
   6318.00    8.552  2.00
   6320.00    8.552  2.00
   6322.00    8.551  2.00
   6324.00    8.549  2.00
   6326.00    8.548  2.00
   6328.00    8.546  2.00
   6330.00    8.544  2.00
   6332.00    8.541  2.00
   6334.00    8.539  2.00
   6336.00    8.538  2.00
   6338.00    8.537  2.00
   6340.00    8.535  2.00
   6342.00    8.535  2.00
   6344.00    8.534  2.00
   6346.00    8.534  2.00
   6348.00    8.535  2.00
   6350.00    8.536  2.00
   6352.00    8.536  2.00
   6354.00    8.535  2.00
   6356.00    8.534  2.00
   6358.00    8.532  2.00
   6360.00    8.531  2.00
   6362.00    8.531  2.00
   6364.00    8.531  2.00
   6366.00    8.531  2.00
   6368.00    8.531  2.00
   6370.00    8.531  2.00
   6372.00    8.531  2.00
   6374.00    8.530  2.00
   6376.00    8.529  2.00
   6378.00    8.529  2.00
   6380.00    8.528  2.00
   6382.00    8.527  2.00
   6384.00    8.525  2.00
   6386.00    8.523  2.00
   6388.00    8.522  2.00
   6390.00    8.521  2.00
   6392.00    8.520  2.00
   6394.00    8.520  2.00
   6396.00    8.519  2.00
   6398.00    8.518  2.00
   6400.00    8.517  2.00
   6402.00    8.515  2.00
   6404.00    8.513  2.00
   6406.00    8.512  2.00
   6408.00    8.510  2.00
   6410.00    8.509  2.00
   6412.00    8.507  2.00
   6414.00    8.505  2.00
   6416.00    8.503  2.00
   6418.00    8.501  2.00
   6420.00    8.501  2.00
   6422.00    8.500  2.00
   6424.00    8.500  2.00
   6426.00    8.500  2.00
   6428.00    8.500  2.00
   6430.00    8.500  2.00
   6432.00    8.501  2.00
   6434.00    8.501  2.00
   6436.00    8.501  2.00
   6438.00    8.500  2.00
   6440.00    8.499  2.00
   6442.00    8.500  2.00
   6444.00    8.500  2.00
   6446.00    8.501  2.00
   6448.00    8.501  2.00
   6450.00    8.501  2.00
   6452.00    8.502  2.00
   6454.00    8.502  2.00
   6456.00    8.502  2.00
   6458.00    8.500  2.00
   6460.00    8.500  2.00
   6462.00    8.500  2.00
   6464.00    8.499  2.00
   6466.00    8.498  2.00
   6468.00    8.496  2.00
   6470.00    8.494  2.00
   6472.00    8.492  2.00
   6474.00    8.491  2.00
   6476.00    8.491  2.00
   6478.00    8.491  2.00
   6480.00    8.490  2.00
   6482.00    8.488  2.00
   6484.00    8.486  2.00
   6486.00    8.485  2.00
   6488.00    8.483  2.00
   6490.00    8.481  2.00
   6492.00    8.479  2.00
   6494.00    8.477  2.00
   6496.00    8.477  2.00
   6498.00    8.476  2.00
   6500.00    8.475  2.00
   6502.00    8.473  2.00
   6504.00    8.472  2.00
   6506.00    8.471  2.00
   6508.00    8.471  2.00
   6510.00    8.469  2.00
   6512.00    8.468  2.00
   6514.00    8.466  2.00
   6516.00    8.464  2.00
   6518.00    8.462  2.00
   6520.00    8.461  2.00
   6522.00    8.461  2.00
   6524.00    8.461  2.00
   6526.00    8.461  2.00
   6528.00    8.461  2.00
   6530.00    8.461  2.00
   6532.00    8.458  2.00
   6534.00    8.457  2.00
   6536.00    8.453  2.00
   6538.00    8.452  2.00
   6540.00    8.456  2.00
   6542.00    8.460  2.00
   6544.00    8.462  2.00
   6546.00    8.464  2.00
   6548.00    8.464  2.00
   6550.00    8.462  2.00
   6552.00    8.464  2.00
   6554.00    8.474  2.00
   6556.00    8.505  2.00
   6558.00    8.590  2.00
   6560.00    8.700  2.00
   6562.00    8.728  2.00
   6564.00    8.631  2.00
   6566.00    8.527  2.00
   6568.00    8.480  2.00
   6570.00    8.509  2.00
   6572.00    8.506  2.00
   6574.00    8.503  2.00
   6576.00    8.498  2.00
   6578.00    8.490  2.00
   6580.00    8.478  2.00
   6582.00    8.467  2.00
   6584.00    8.460  2.00
   6586.00    8.457  2.00
   6588.00    8.455  2.00
   6590.00    8.454  2.00
   6592.00    8.453  2.00
   6594.00    8.453  2.00
   6596.00    8.453  2.00
   6598.00    8.453  2.00
   6600.00    8.453  2.00
   6602.00    8.453  2.00
   6604.00    8.453  2.00
   6606.00    8.453  2.00
   6608.00    8.453  2.00
   6610.00    8.453  2.00
   6612.00    8.453  2.00
   6614.00    8.453  2.00
   6616.00    8.453  2.00
   6618.00    8.454  2.00
   6620.00    8.454  2.00
   6622.00    8.454  2.00
   6624.00    8.454  2.00
   6626.00    8.453  2.00
   6628.00    8.453  2.00
   6630.00    8.453  2.00
   6632.00    8.453  2.00
   6634.00    8.452  2.00
   6636.00    8.451  2.00
   6638.00    8.450  2.00
   6640.00    8.450  2.00
   6642.00    8.450  2.00
   6644.00    8.451  2.00
   6646.00    8.451  2.00
   6648.00    8.451  2.00
   6650.00    8.450  2.00
   6652.00    8.449  2.00
   6654.00    8.448  2.00
   6656.00    8.448  2.00
   6658.00    8.448  2.00
   6660.00    8.448  2.00
   6662.00    8.448  2.00
   6664.00    8.448  2.00
   6666.00    8.448  2.00
   6668.00    8.447  2.00
   6670.00    8.447  2.00
   6672.00    8.446  2.00
   6674.00    8.446  2.00
   6676.00    8.446  2.00
   6678.00    8.445  2.00
   6680.00    8.444  2.00
   6682.00    8.443  2.00
   6684.00    8.442  2.00
   6686.00    8.441  2.00
   6688.00    8.441  2.00
   6690.00    8.442  2.00
   6692.00    8.442  2.00
   6694.00    8.442  2.00
   6696.00    8.441  2.00
   6698.00    8.440  2.00
   6700.00    8.439  2.00
   6702.00    8.439  2.00
   6704.00    8.440  2.00
   6706.00    8.440  2.00
   6708.00    8.439  2.00
   6710.00    8.439  2.00
   6712.00    8.439  2.00
   6714.00    8.439  2.00
   6716.00    8.439  2.00
   6718.00    8.438  2.00
   6720.00    8.438  2.00
   6722.00    8.438  2.00
   6724.00    8.438  2.00
   6726.00    8.438  2.00
   6728.00    8.438  2.00
   6730.00    8.438  2.00
   6732.00    8.438  2.00
   6734.00    8.438  2.00
   6736.00    8.438  2.00
   6738.00    8.438  2.00
   6740.00    8.438  2.00
   6742.00    8.438  2.00
   6744.00    8.437  2.00
   6746.00    8.436  2.00
   6748.00    8.436  2.00
   6750.00    8.435  2.00
   6752.00    8.435  2.00
   6754.00    8.434  2.00
   6756.00    8.434  2.00
   6758.00    8.433  2.00
   6760.00    8.432  2.00
   6762.00    8.430  2.00
   6764.00    8.429  2.00
   6766.00    8.428  2.00
   6768.00    8.428  2.00
   6770.00    8.427  2.00
   6772.00    8.426  2.00
   6774.00    8.426  2.00
   6776.00    8.425  2.00
   6778.00    8.424  2.00
   6780.00    8.424  2.00
   6782.00    8.424  2.00
   6784.00    8.424  2.00
   6786.00    8.424  2.00
   6788.00    8.423  2.00
   6790.00    8.422  2.00
   6792.00    8.421  2.00
   6794.00    8.421  2.00
   6796.00    8.421  2.00
   6798.00    8.421  2.00
   6800.00    8.420  2.00
   6802.00    8.420  2.00
   6804.00    8.419  2.00
   6806.00    8.418  2.00
   6808.00    8.417  2.00
   6810.00    8.417  2.00
   6812.00    8.416  2.00
   6814.00    8.416  2.00
   6816.00    8.416  2.00
   6818.00    8.415  2.00
   6820.00    8.415  2.00
   6822.00    8.414  2.00
   6824.00    8.414  2.00
   6826.00    8.414  2.00
   6828.00    8.414  2.00
   6830.00    8.414  2.00
   6832.00    8.414  2.00
   6834.00    8.413  2.00
   6836.00    8.413  2.00
   6838.00    8.413  2.00
   6840.00    8.413  2.00
   6842.00    8.414  2.00
   6844.00    8.414  2.00
   6846.00    8.413  2.00
   6848.00    8.414  2.00
   6850.00    8.413  2.00
   6852.00    8.413  2.00
   6854.00    8.413  2.00
   6856.00    8.413  2.00
   6858.00    8.412  2.00
   6860.00    8.412  2.00
   6862.00    8.412  2.00
   6864.00    8.412  2.00
   6866.00    8.411  2.00
   6868.00    8.411  2.00
   6870.00    8.411  2.00
   6872.00    8.411  2.00
   6874.00    8.411  2.00
   6876.00    8.410  2.00
   6878.00    8.410  2.00
   6880.00    8.410  2.00
   6882.00    8.410  2.00
   6884.00    8.409  2.00
   6886.00    8.409  2.00
   6888.00    8.409  2.00
   6890.00    8.409  2.00
   6892.00    8.408  2.00
   6894.00    8.408  2.00
   6896.00    8.408  2.00
   6898.00    8.407  2.00
   6900.00    8.406  2.00
   6902.00    8.405  2.00
   6904.00    8.404  2.00
   6906.00    8.404  2.00
   6908.00    8.403  2.00
   6910.00    8.403  2.00
   6912.00    8.402  2.00
   6914.00    8.402  2.00
   6916.00    8.402  2.00
   6918.00    8.403  2.00
   6920.00    8.403  2.00
   6922.00    8.403  2.00
   6924.00    8.403  2.00
   6926.00    8.404  2.00
   6928.00    8.405  2.00
   6930.00    8.405  2.00
   6932.00    8.405  2.00
   6934.00    8.406  2.00
   6936.00    8.407  2.00
   6938.00    8.408  2.00
   6940.00    8.408  2.00
   6942.00    8.408  2.00
   6944.00    8.407  2.00
   6946.00    8.407  2.00
   6948.00    8.406  2.00
   6950.00    8.406  2.00
   6952.00    8.405  2.00
   6954.00    8.405  2.00
   6956.00    8.405  2.00
   6958.00    8.405  2.00
   6960.00    8.405  2.00
   6962.00    8.404  2.00
   6964.00    8.404  2.00
   6966.00    8.403  2.00
   6968.00    8.403  2.00
   6970.00    8.404  2.00
   6972.00    8.404  2.00
   6974.00    8.405  2.00
   6976.00    8.405  2.00
   6978.00    8.406  2.00
   6980.00    8.407  2.00
   6982.00    8.408  2.00
   6984.00    8.409  2.00
   6986.00    8.410  2.00
   6988.00    8.411  2.00
   6990.00    8.411  2.00
   6992.00    8.411  2.00
   6994.00    8.410  2.00
   6996.00    8.410  2.00
   6998.00    8.410  2.00
   7000.00    8.411  2.00
   7002.00    8.411  2.00
   7004.00    8.411  2.00
   7006.00    8.410  2.00
   7008.00    8.409  2.00
   7010.00    8.409  2.00
   7012.00    8.408  2.00
   7014.00    8.406  2.00
   7016.00    8.405  2.00
   7018.00    8.403  2.00
   7020.00    8.402  2.00
   7022.00    8.401  2.00
   7024.00    8.399  2.00
   7026.00    8.397  2.00
   7028.00    8.395  2.00
   7030.00    8.393  2.00
   7032.00    8.392  2.00
   7034.00    8.391  2.00
   7036.00    8.390  2.00
   7038.00    8.390  2.00
   7040.00    8.389  2.00
   7042.00    8.389  2.00
   7044.00    8.388  2.00
   7046.00    8.386  2.00
   7048.00    8.385  2.00
   7050.00    8.384  2.00
   7052.00    8.384  2.00
   7054.00    8.383  2.00
   7056.00    8.383  2.00
   7058.00    8.382  2.00
   7060.00    8.382  2.00
   7062.00    8.382  2.00
   7064.00    8.383  2.00
   7066.00    8.384  2.00
   7068.00    8.385  2.00
   7070.00    8.385  2.00
   7072.00    8.384  2.00
   7074.00    8.383  2.00
   7076.00    8.383  2.00
   7078.00    8.382  2.00
   7080.00    8.382  2.00
   7082.00    8.382  2.00
   7084.00    8.382  2.00
   7086.00    8.382  2.00
   7088.00    8.381  2.00
   7090.00    8.380  2.00
   7092.00    8.380  2.00
   7094.00    8.380  2.00
   7096.00    8.379  2.00
   7098.00    8.378  2.00
   7100.00    8.378  2.00
   7102.00    8.377  2.00
   7104.00    8.376  2.00
   7106.00    8.376  2.00
   7108.00    8.375  2.00
   7110.00    8.375  2.00
   7112.00    8.374  2.00
   7114.00    8.373  2.00
   7116.00    8.373  2.00
   7118.00    8.373  2.00
   7120.00    8.373  2.00
   7122.00    8.373  2.00
   7124.00    8.373  2.00
   7126.00    8.373  2.00
   7128.00    8.373  2.00
   7130.00    8.374  2.00
   7132.00    8.373  2.00
   7134.00    8.373  2.00
   7136.00    8.373  2.00
   7138.00    8.373  2.00
   7140.00    8.372  2.00
   7142.00    8.372  2.00
   7144.00    8.371  2.00
   7146.00    8.370  2.00
   7148.00    8.369  2.00
   7150.00    8.369  2.00
   7152.00    8.369  2.00
   7154.00    8.369  2.00
   7156.00    8.369  2.00
   7158.00    8.369  2.00
   7160.00    8.370  2.00
   7162.00    8.370  2.00
   7164.00    8.369  2.00
   7166.00    8.367  2.00
   7168.00    8.366  2.00
   7170.00    8.366  2.00
   7172.00    8.365  2.00
   7174.00    8.364  2.00
   7176.00    8.364  2.00
   7178.00    8.364  2.00
   7180.00    8.364  2.00
   7182.00    8.365  2.00
   7184.00    8.366  2.00
   7186.00    8.368  2.00
   7188.00    8.369  2.00
   7190.00    8.369  2.00
   7192.00    8.370  2.00
   7194.00    8.370  2.00
   7196.00    8.369  2.00
   7198.00    8.369  2.00
   7200.00    8.369  2.00
   7202.00    8.370  2.00
   7204.00    8.372  2.00
   7206.00    8.372  2.00
   7208.00    8.372  2.00
   7210.00    8.372  2.00
   7212.00    8.371  2.00
   7214.00    8.369  2.00
   7216.00    8.368  2.00
   7218.00    8.368  2.00
   7220.00    8.366  2.00
   7222.00    8.364  2.00
   7224.00    8.362  2.00
   7226.00    8.362  2.00
   7228.00    8.361  2.00
   7230.00    8.360  2.00
   7232.00    8.358  2.00
   7234.00    8.358  2.00
   7236.00    8.358  2.00
   7238.00    8.358  2.00
   7240.00    8.357  2.00
   7242.00    8.356  2.00
   7244.00    8.355  2.00
   7246.00    8.354  2.00
   7248.00    8.354  2.00
   7250.00    8.354  2.00
   7252.00    8.354  2.00
   7254.00    8.352  2.00
   7256.00    8.351  2.00
   7258.00    8.351  2.00
   7260.00    8.351  2.00
   7262.00    8.351  2.00
   7264.00    8.350  2.00
   7266.00    8.349  2.00
   7268.00    8.349  2.00
   7270.00    8.349  2.00
   7272.00    8.348  2.00
   7274.00    8.348  2.00
   7276.00    8.347  2.00
   7278.00    8.347  2.00
   7280.00    8.348  2.00
   7282.00    8.348  2.00
   7284.00    8.348  2.00
   7286.00    8.348  2.00
   7288.00    8.349  2.00
   7290.00    8.350  2.00
   7292.00    8.351  2.00
   7294.00    8.351  2.00
   7296.00    8.350  2.00
   7298.00    8.349  2.00
   7300.00    8.349  2.00
   7302.00    8.349  2.00
   7304.00    8.349  2.00
   7306.00    8.349  2.00
   7308.00    8.349  2.00
   7310.00    8.349  2.00
   7312.00    8.349  2.00
   7314.00    8.348  2.00
   7316.00    8.348  2.00
   7318.00    8.347  2.00
   7320.00    8.347  2.00
   7322.00    8.347  2.00
   7324.00    8.347  2.00
   7326.00    8.347  2.00
   7328.00    8.347  2.00
   7330.00    8.346  2.00
   7332.00    8.346  2.00
   7334.00    8.345  2.00
   7336.00    8.345  2.00
   7338.00    8.344  2.00
   7340.00    8.343  2.00
   7342.00    8.342  2.00
   7344.00    8.342  2.00
   7346.00    8.342  2.00
   7348.00    8.342  2.00
   7350.00    8.341  2.00
   7352.00    8.340  2.00
   7354.00    8.340  2.00
   7356.00    8.340  2.00
   7358.00    8.340  2.00
   7360.00    8.339  2.00
   7362.00    8.338  2.00
   7364.00    8.338  2.00
   7366.00    8.337  2.00
   7368.00    8.337  2.00
   7370.00    8.337  2.00
   7372.00    8.336  2.00
   7374.00    8.336  2.00
   7376.00    8.335  2.00
   7378.00    8.335  2.00
   7380.00    8.335  2.00
   7382.00    8.334  2.00
   7384.00    8.334  2.00
   7386.00    8.334  2.00
   7388.00    8.333  2.00
   7390.00    8.333  2.00
   7392.00    8.333  2.00
   7394.00    8.332  2.00
   7396.00    8.332  2.00
   7398.00    8.332  2.00
   7400.00    8.331  2.00
   7402.00    8.331  2.00
   7404.00    8.330  2.00
   7406.00    8.330  2.00
   7408.00    8.330  2.00
   7410.00    8.329  2.00
   7412.00    8.329  2.00
   7414.00    8.329  2.00
   7416.00    8.328  2.00
   7418.00    8.328  2.00
   7420.00    8.328  2.00
   7422.00    8.327  2.00
   7424.00    8.327  2.00
   7426.00    8.326  2.00
   7428.00    8.326  2.00
   7430.00    8.326  2.00
   7432.00    8.325  2.00
   7434.00    8.325  2.00
   7436.00    8.325  2.00
   7438.00    8.324  2.00
   7440.00    8.324  2.00
   7442.00    8.324  2.00
   7444.00    8.323  2.00
   7446.00    8.323  2.00
   7448.00    8.323  2.00
   7450.00    8.322  2.00
   7452.00    8.322  2.00
   7454.00    8.322  2.00
   7456.00    8.321  2.00
   7458.00    8.321  2.00
   7460.00    8.320  2.00
   7462.00    8.320  2.00
   7464.00    8.320  2.00
   7466.00    8.319  2.00
   7468.00    8.319  2.00
   7470.00    8.319  2.00
   7472.00    8.318  2.00
   7474.00    8.318  2.00
   7476.00    8.318  2.00
   7478.00    8.317  2.00
   7480.00    8.317  2.00
   7482.00    8.317  2.00
   7484.00    8.316  2.00
   7486.00    8.316  2.00
   7488.00    8.316  2.00
   7490.00    8.315  2.00
   7492.00    8.315  2.00
   7494.00    8.314  2.00
   7496.00    8.314  2.00
   7498.00    8.314  2.00
   7500.00    8.313  2.00
   7502.00    8.313  2.00
   7504.00    8.313  2.00
   7506.00    8.312  2.00
   7508.00    8.312  2.00
   7510.00    8.312  2.00
   7512.00    8.311  2.00
   7514.00    8.311  2.00
   7516.00    8.311  2.00
   7518.00    8.310  2.00
   7520.00    8.310  2.00
   7522.00    8.310  2.00
   7524.00    8.309  2.00
   7526.00    8.309  2.00
   7528.00    8.309  2.00
   7530.00    8.308  2.00
   7532.00    8.308  2.00
   7534.00    8.308  2.00
   7536.00    8.307  2.00
   7538.00    8.307  2.00
   7540.00    8.307  2.00
   7542.00    8.306  2.00
   7544.00    8.306  2.00
   7546.00    8.305  2.00
   7548.00    8.305  2.00
   7550.00    8.305  2.00
   7552.00    8.304  2.00
   7554.00    8.304  2.00
   7556.00    8.304  2.00
   7558.00    8.303  2.00
   7560.00    8.303  2.00
   7562.00    8.303  2.00
   7564.00    8.302  2.00
   7566.00    8.302  2.00
   7568.00    8.302  2.00
   7570.00    8.301  2.00
   7572.00    8.301  2.00
   7574.00    8.301  2.00
   7576.00    8.300  2.00
   7578.00    8.300  2.00
   7580.00    8.300  2.00
   7582.00    8.299  2.00
   7584.00    8.299  2.00
   7586.00    8.299  2.00
   7588.00    8.298  2.00
   7590.00    8.298  2.00
   7592.00    8.298  2.00
   7594.00    8.298  2.00
   7596.00    8.298  2.00
   7598.00    8.298  2.00
   7600.00    8.298  2.00
   7602.00    8.298  2.00
   7604.00    8.298  2.00
   7606.00    8.298  2.00
   7608.00    8.297  2.00
   7610.00    8.297  2.00
   7612.00    8.297  2.00
   7614.00    8.297  2.00
   7616.00    8.297  2.00
   7618.00    8.297  2.00
   7620.00    8.297  2.00
   7622.00    8.297  2.00
   7624.00    8.297  2.00
   7626.00    8.297  2.00
   7628.00    8.297  2.00
   7630.00    8.297  2.00
   7632.00    8.297  2.00
   7634.00    8.296  2.00
   7636.00    8.296  2.00
   7638.00    8.296  2.00
   7640.00    8.296  2.00
   7642.00    8.296  2.00
   7644.00    8.296  2.00
   7646.00    8.296  2.00
   7648.00    8.296  2.00
   7650.00    8.296  2.00
   7652.00    8.296  2.00
   7654.00    8.296  2.00
   7656.00    8.296  2.00
   7658.00    8.296  2.00
   7660.00    8.295  2.00
   7662.00    8.295  2.00
   7664.00    8.295  2.00
   7666.00    8.295  2.00
   7668.00    8.295  2.00
   7670.00    8.295  2.00
   7672.00    8.295  2.00
   7674.00    8.295  2.00
   7676.00    8.295  2.00
   7678.00    8.295  2.00
   7680.00    8.295  2.00
   7682.00    8.295  2.00
   7684.00    8.295  2.00
   7686.00    8.295  2.00
   7688.00    8.294  2.00
   7690.00    8.294  2.00
   7692.00    8.294  2.00
   7694.00    8.294  2.00
   7696.00    8.294  2.00
   7698.00    8.294  2.00
   7700.00    8.294  2.00
   7702.00    8.294  2.00
   7704.00    8.294  2.00
   7706.00    8.294  2.00
   7708.00    8.294  2.00
   7710.00    8.294  2.00
   7712.00    8.294  2.00
   7714.00    8.294  2.00
   7716.00    8.293  2.00
   7718.00    8.293  2.00
   7720.00    8.293  2.00
   7722.00    8.293  2.00
   7724.00    8.293  2.00
   7726.00    8.293  2.00
   7728.00    8.293  2.00
   7730.00    8.292  2.00
   7732.00    8.292  2.00
   7734.00    8.292  2.00
   7736.00    8.291  2.00
   7738.00    8.291  2.00
   7740.00    8.291  2.00
   7742.00    8.291  2.00
   7744.00    8.290  2.00
   7746.00    8.290  2.00
   7748.00    8.290  2.00
   7750.00    8.292  2.00
   7752.00    8.292  2.00
   7754.00    8.292  2.00
   7756.00    8.291  2.00
   7758.00    8.291  2.00
   7760.00    8.291  2.00
   7762.00    8.291  2.00
   7764.00    8.290  2.00
   7766.00    8.290  2.00
   7768.00    8.290  2.00
   7770.00    8.290  2.00
   7772.00    8.289  2.00
   7774.00    8.289  2.00
   7776.00    8.289  2.00
   7778.00    8.289  2.00
   7780.00    8.288  2.00
   7782.00    8.288  2.00
   7784.00    8.288  2.00
   7786.00    8.288  2.00
   7788.00    8.287  2.00
   7790.00    8.287  2.00
   7792.00    8.287  2.00
   7794.00    8.287  2.00
   7796.00    8.286  2.00
   7798.00    8.286  2.00
   7800.00    8.286  2.00
   7802.00    8.286  2.00
   7804.00    8.285  2.00
   7806.00    8.285  2.00
   7808.00    8.285  2.00
   7810.00    8.285  2.00
   7812.00    8.285  2.00
   7814.00    8.284  2.00
   7816.00    8.284  2.00
   7818.00    8.284  2.00
   7820.00    8.284  2.00
   7822.00    8.283  2.00
   7824.00    8.283  2.00
   7826.00    8.283  2.00
   7828.00    8.283  2.00
   7830.00    8.282  2.00
   7832.00    8.282  2.00
   7834.00    8.282  2.00
   7836.00    8.282  2.00
   7838.00    8.281  2.00
   7840.00    8.281  2.00
   7842.00    8.281  2.00
   7844.00    8.281  2.00
   7846.00    8.280  2.00
   7848.00    8.280  2.00
   7850.00    8.280  2.00
   7852.00    8.280  2.00
   7854.00    8.279  2.00
   7856.00    8.279  2.00
   7858.00    8.279  2.00
   7860.00    8.279  2.00
   7862.00    8.279  2.00
   7864.00    8.278  2.00
   7866.00    8.278  2.00
   7868.00    8.278  2.00
   7870.00    8.278  2.00
   7872.00    8.277  2.00
   7874.00    8.277  2.00
   7876.00    8.277  2.00
   7878.00    8.277  2.00
   7880.00    8.276  2.00
   7882.00    8.276  2.00
   7884.00    8.276  2.00
   7886.00    8.276  2.00
   7888.00    8.275  2.00
   7890.00    8.275  2.00
   7892.00    8.275  2.00
   7894.00    8.275  2.00
   7896.00    8.274  2.00
   7898.00    8.274  2.00
   7900.00    8.274  2.00
   7902.00    8.274  2.00
   7904.00    8.274  2.00
   7906.00    8.273  2.00
   7908.00    8.273  2.00
   7910.00    8.273  2.00
   7912.00    8.273  2.00
   7914.00    8.272  2.00
   7916.00    8.272  2.00
   7918.00    8.272  2.00
   7920.00    8.272  2.00
   7922.00    8.271  2.00
   7924.00    8.271  2.00
   7926.00    8.271  2.00
   7928.00    8.271  2.00
   7930.00    8.271  2.00
   7932.00    8.270  2.00
   7934.00    8.270  2.00
   7936.00    8.270  2.00
   7938.00    8.270  2.00
   7940.00    8.269  2.00
   7942.00    8.269  2.00
   7944.00    8.269  2.00
   7946.00    8.269  2.00
   7948.00    8.269  2.00
   7950.00    8.268  2.00
   7952.00    8.268  2.00
   7954.00    8.268  2.00
   7956.00    8.268  2.00
   7958.00    8.267  2.00
   7960.00    8.267  2.00
   7962.00    8.267  2.00
   7964.00    8.267  2.00
   7966.00    8.266  2.00
   7968.00    8.266  2.00
   7970.00    8.266  2.00
   7972.00    8.266  2.00
   7974.00    8.266  2.00
   7976.00    8.265  2.00
   7978.00    8.265  2.00
   7980.00    8.265  2.00
   7982.00    8.265  2.00
   7984.00    8.264  2.00
   7986.00    8.264  2.00
   7988.00    8.264  2.00
   7990.00    8.264  2.00
   7992.00    8.264  2.00
   7994.00    8.263  2.00
   7996.00    8.263  2.00
   7998.00    8.263  2.00
   8000.00    8.263  2.00
   8002.00    8.262  2.00
   8004.00    8.262  2.00
   8006.00    8.262  2.00
   8008.00    8.262  2.00
   8010.00    8.262  2.00
   8012.00    8.261  2.00
   8014.00    8.261  2.00
   8016.00    8.261  2.00
   8018.00    8.261  2.00
   8020.00    8.260  2.00
   8022.00    8.260  2.00
   8024.00    8.260  2.00
   8026.00    8.260  2.00
   8028.00    8.260  2.00
   8030.00    8.259  2.00
   8032.00    8.259  2.00
   8034.00    8.259  2.00
   8036.00    8.259  2.00
   8038.00    8.259  2.00
   8040.00    8.258  2.00
   8042.00    8.258  2.00
   8044.00    8.258  2.00
   8046.00    8.258  2.00
   8048.00    8.257  2.00
   8050.00    8.257  2.00
   8052.00    8.257  2.00
   8054.00    8.257  2.00
   8056.00    8.257  2.00
   8058.00    8.256  2.00
   8060.00    8.256  2.00
   8062.00    8.256  2.00
   8064.00    8.256  2.00
   8066.00    8.255  2.00
   8068.00    8.255  2.00
   8070.00    8.255  2.00
   8072.00    8.255  2.00
   8074.00    8.255  2.00
   8076.00    8.254  2.00
   8078.00    8.254  2.00
   8080.00    8.254  2.00
   8082.00    8.254  2.00
   8084.00    8.254  2.00
   8086.00    8.253  2.00
   8088.00    8.253  2.00
   8090.00    8.253  2.00
   8092.00    8.253  2.00
   8094.00    8.252  2.00
   8096.00    8.252  2.00
   8098.00    8.252  2.00
   8100.00    8.251  2.00
   8102.00    8.251  2.00
   8104.00    8.250  2.00
   8106.00    8.250  2.00
   8108.00    8.250  2.00
   8110.00    8.249  2.00
   8112.00    8.249  2.00
   8114.00    8.249  2.00
   8116.00    8.248  2.00
   8118.00    8.248  2.00
   8120.00    8.248  2.00
   8122.00    8.247  2.00
   8124.00    8.247  2.00
   8126.00    8.246  2.00
   8128.00    8.246  2.00
   8130.00    8.246  2.00
   8132.00    8.245  2.00
   8134.00    8.245  2.00
   8136.00    8.245  2.00
   8138.00    8.244  2.00
   8140.00    8.244  2.00
   8142.00    8.244  2.00
   8144.00    8.243  2.00
   8146.00    8.243  2.00
   8148.00    8.243  2.00
   8150.00    8.242  2.00
   8152.00    8.242  2.00
   8154.00    8.242  2.00
   8156.00    8.242  2.00
   8158.00    8.242  2.00
   8160.00    8.241  2.00
   8162.00    8.241  2.00
   8164.00    8.241  2.00
   8166.00    8.241  2.00
   8168.00    8.240  2.00
   8170.00    8.240  2.00
   8172.00    8.240  2.00
   8174.00    8.240  2.00
   8176.00    8.239  2.00
   8178.00    8.239  2.00
   8180.00    8.239  2.00
   8182.00    8.239  2.00
   8184.00    8.238  2.00
   8186.00    8.238  2.00
   8188.00    8.238  2.00
   8190.00    8.238  2.00
   8192.00    8.238  2.00
   8194.00    8.237  2.00
   8196.00    8.237  2.00
   8198.00    8.237  2.00
   8200.00    8.237  2.00
   8202.00    8.236  2.00
   8204.00    8.236  2.00
   8206.00    8.236  2.00
   8208.00    8.236  2.00
   8210.00    8.236  2.00
   8212.00    8.235  2.00
   8214.00    8.235  2.00
   8216.00    8.235  2.00
   8218.00    8.235  2.00
   8220.00    8.234  2.00
   8222.00    8.234  2.00
   8224.00    8.234  2.00
   8226.00    8.234  2.00
   8228.00    8.233  2.00
   8230.00    8.233  2.00
   8232.00    8.233  2.00
   8234.00    8.233  2.00
   8236.00    8.233  2.00
   8238.00    8.232  2.00
   8240.00    8.232  2.00
   8242.00    8.232  2.00
   8244.00    8.232  2.00
   8246.00    8.231  2.00
   8248.00    8.231  2.00
   8250.00    8.231  2.00
   8252.00    8.231  2.00
   8254.00    8.231  2.00
   8256.00    8.230  2.00
   8258.00    8.230  2.00
   8260.00    8.230  2.00
   8262.00    8.230  2.00
   8264.00    8.229  2.00
   8266.00    8.229  2.00
   8268.00    8.229  2.00
   8270.00    8.229  2.00
   8272.00    8.229  2.00
   8274.00    8.228  2.00
   8276.00    8.228  2.00
   8278.00    8.228  2.00
   8280.00    8.228  2.00
   8282.00    8.227  2.00
   8284.00    8.227  2.00
   8286.00    8.227  2.00
   8288.00    8.227  2.00
   8290.00    8.227  2.00
   8292.00    8.226  2.00
   8294.00    8.226  2.00
   8296.00    8.226  2.00
   8298.00    8.226  2.00
   8300.00    8.226  2.00
   8302.00    8.225  2.00
   8304.00    8.225  2.00
   8306.00    8.225  2.00
   8308.00    8.225  2.00
   8310.00    8.225  2.00
   8312.00    8.225  2.00
   8314.00    8.224  2.00
   8316.00    8.224  2.00
   8318.00    8.224  2.00
   8320.00    8.224  2.00
   8322.00    8.224  2.00
   8324.00    8.224  2.00
   8326.00    8.223  2.00
   8328.00    8.223  2.00
   8330.00    8.223  2.00
   8332.00    8.223  2.00
   8334.00    8.223  2.00
   8336.00    8.223  2.00
   8338.00    8.222  2.00
   8340.00    8.222  2.00
   8342.00    8.222  2.00
   8344.00    8.222  2.00
   8346.00    8.222  2.00
   8348.00    8.221  2.00
   8350.00    8.221  2.00
   8352.00    8.221  2.00
   8354.00    8.221  2.00
   8356.00    8.221  2.00
   8358.00    8.221  2.00
   8360.00    8.220  2.00
   8362.00    8.220  2.00
   8364.00    8.220  2.00
   8366.00    8.220  2.00
   8368.00    8.220  2.00
   8370.00    8.220  2.00
   8372.00    8.219  2.00
   8374.00    8.219  2.00
   8376.00    8.219  2.00
   8378.00    8.219  2.00
   8380.00    8.219  2.00
   8382.00    8.219  2.00
   8384.00    8.218  2.00
   8386.00    8.218  2.00
   8388.00    8.218  2.00
   8390.00    8.218  2.00
   8392.00    8.218  2.00
   8394.00    8.218  2.00
   8396.00    8.217  2.00
   8398.00    8.217  2.00
   8400.00    8.217  2.00
   8402.00    8.212  2.00
   8404.00    8.211  2.00
   8406.00    8.211  2.00
   8408.00    8.211  2.00
   8410.00    8.211  2.00
   8412.00    8.211  2.00
   8414.00    8.210  2.00
   8416.00    8.210  2.00
   8418.00    8.210  2.00
   8420.00    8.210  2.00
   8422.00    8.210  2.00
   8424.00    8.209  2.00
   8426.00    8.209  2.00
   8428.00    8.209  2.00
   8430.00    8.209  2.00
   8432.00    8.209  2.00
   8434.00    8.209  2.00
   8436.00    8.208  2.00
   8438.00    8.208  2.00
   8440.00    8.208  2.00
   8442.00    8.208  2.00
   8444.00    8.208  2.00
   8446.00    8.207  2.00
   8448.00    8.207  2.00
   8450.00    8.207  2.00
   8452.00    8.207  2.00
   8454.00    8.207  2.00
   8456.00    8.206  2.00
   8458.00    8.206  2.00
   8460.00    8.206  2.00
   8462.00    8.206  2.00
   8464.00    8.206  2.00
   8466.00    8.206  2.00
   8468.00    8.205  2.00
   8470.00    8.201  2.00
   8472.00    8.203  2.00
   8474.00    8.202  2.00
   8476.00    8.202  2.00
   8478.00    8.208  2.00
   8480.00    8.228  2.00
   8482.00    8.234  2.00
   8484.00    8.234  2.00
   8486.00    8.237  2.00
   8488.00    8.230  2.00
   8490.00    8.231  2.00
   8492.00    8.244  2.00
   8494.00    8.290  2.00
   8496.00    8.334  2.00
   8498.00    8.326  2.00
   8500.00    8.273  2.00
   8502.00    8.226  2.00
   8504.00    8.195  2.00
   8506.00    8.190  2.00
   8508.00    8.192  2.00
   8510.00    8.192  2.00
   8512.00    8.192  2.00
   8514.00    8.192  2.00
   8516.00    8.192  2.00
   8518.00    8.192  2.00
   8520.00    8.192  2.00
   8522.00    8.192  2.00
   8524.00    8.192  2.00
   8526.00    8.192  2.00
   8528.00    8.192  2.00
   8530.00    8.192  2.00
   8532.00    8.192  2.00
   8534.00    8.224  2.00
   8536.00    8.253  2.00
   8538.00    8.326  2.00
   8540.00    8.395  2.00
   8542.00    8.398  2.00
   8544.00    8.318  2.00
   8546.00    8.244  2.00
   8548.00    8.211  2.00
   8550.00    8.199  2.00
   8552.00    8.193  2.00
   8554.00    8.193  2.00
   8556.00    8.193  2.00
   8558.00    8.194  2.00
   8560.00    8.194  2.00
   8562.00    8.194  2.00
   8564.00    8.195  2.00
   8566.00    8.195  2.00
   8568.00    8.195  2.00
   8570.00    8.195  2.00
   8572.00    8.195  2.00
   8574.00    8.195  2.00
   8576.00    8.195  2.00
   8578.00    8.195  2.00
   8580.00    8.196  2.00
   8582.00    8.196  2.00
   8584.00    8.196  2.00
   8586.00    8.196  2.00
   8588.00    8.196  2.00
   8590.00    8.196  2.00
   8592.00    8.196  2.00
   8594.00    8.196  2.00
   8596.00    8.196  2.00
   8598.00    8.196  2.00
   8600.00    8.197  2.00
   8602.00    8.197  2.00
   8604.00    8.196  2.00
   8606.00    8.196  2.00
   8608.00    8.195  2.00
   8610.00    8.195  2.00
   8612.00    8.194  2.00
   8614.00    8.194  2.00
   8616.00    8.193  2.00
   8618.00    8.193  2.00
   8620.00    8.192  2.00
   8622.00    8.192  2.00
   8624.00    8.192  2.00
   8626.00    8.191  2.00
   8628.00    8.191  2.00
   8630.00    8.190  2.00
   8632.00    8.190  2.00
   8634.00    8.189  2.00
   8636.00    8.189  2.00
   8638.00    8.188  2.00
   8640.00    8.188  2.00
   8642.00    8.187  2.00
   8644.00    8.187  2.00
   8646.00    8.186  2.00
   8648.00    8.186  2.00
   8650.00    8.185  2.00
   8652.00    8.185  2.00
   8654.00    8.185  2.00
   8656.00    8.186  2.00
   8658.00    8.184  2.00
   8660.00    8.382  2.00
   8662.00    8.371  2.00
   8664.00    8.297  2.00
   8666.00    8.237  2.00
   8668.00    8.223  2.00
   8670.00    8.207  2.00
   8672.00    8.201  2.00
   8674.00    8.189  2.00
   8676.00    8.188  2.00
   8678.00    8.191  2.00
   8680.00    8.191  2.00
   8682.00    8.191  2.00
   8684.00    8.190  2.00
   8686.00    8.190  2.00
   8688.00    8.190  2.00
   8690.00    8.190  2.00
   8692.00    8.190  2.00
   8694.00    8.189  2.00
   8696.00    8.189  2.00
   8698.00    8.189  2.00
   8700.00    8.189  2.00
   8702.00    8.189  2.00
   8704.00    8.189  2.00
   8706.00    8.188  2.00
   8708.00    8.188  2.00
   8710.00    8.188  2.00
   8712.00    8.188  2.00
   8714.00    8.188  2.00
   8716.00    8.188  2.00
   8718.00    8.187  2.00
   8720.00    8.187  2.00
   8722.00    8.187  2.00
   8724.00    8.187  2.00
   8726.00    8.187  2.00
   8728.00    8.186  2.00
   8730.00    8.186  2.00
   8732.00    8.186  2.00
   8734.00    8.186  2.00
   8736.00    8.186  2.00
   8738.00    8.186  2.00
   8740.00    8.185  2.00
   8742.00    8.185  2.00
   8744.00    8.185  2.00
   8746.00    8.185  2.00
   8748.00    8.185  2.00
   8750.00    8.185  2.00
   8752.00    8.184  2.00
   8754.00    8.184  2.00
   8756.00    8.184  2.00
   8758.00    8.184  2.00
   8760.00    8.184  2.00
   8762.00    8.184  2.00
   8764.00    8.183  2.00
   8766.00    8.183  2.00
   8768.00    8.183  2.00
   8770.00    8.183  2.00
   8772.00    8.183  2.00
   8774.00    8.183  2.00
   8776.00    8.182  2.00
   8778.00    8.182  2.00
   8780.00    8.182  2.00
   8782.00    8.182  2.00
   8784.00    8.182  2.00
   8786.00    8.182  2.00
   8788.00    8.181  2.00
   8790.00    8.181  2.00
   8792.00    8.181  2.00
   8794.00    8.181  2.00
   8796.00    8.181  2.00
   8798.00    8.181  2.00
   8800.00    8.180  2.00
   8802.00    8.180  2.00
   8804.00    8.180  2.00
   8806.00    8.180  2.00
   8808.00    8.180  2.00
   8810.00    8.180  2.00
   8812.00    8.179  2.00
   8814.00    8.179  2.00
   8816.00    8.179  2.00
   8818.00    8.179  2.00
   8820.00    8.179  2.00
   8822.00    8.179  2.00
   8824.00    8.178  2.00
   8826.00    8.178  2.00
   8828.00    8.178  2.00
   8830.00    8.178  2.00
   8832.00    8.178  2.00
   8834.00    8.178  2.00
   8836.00    8.177  2.00
   8838.00    8.177  2.00
   8840.00    8.177  2.00
   8842.00    8.177  2.00
   8844.00    8.177  2.00
   8846.00    8.177  2.00
   8848.00    8.176  2.00
   8850.00    8.176  2.00
   8852.00    8.176  2.00
   8854.00    8.176  2.00
   8856.00    8.176  2.00
   8858.00    8.176  2.00
   8860.00    8.175  2.00
   8862.00    8.175  2.00
   8864.00    8.175  2.00
   8866.00    8.175  2.00
   8868.00    8.175  2.00
   8870.00    8.175  2.00
   8872.00    8.175  2.00
   8874.00    8.174  2.00
   8876.00    8.174  2.00
   8878.00    8.174  2.00
   8880.00    8.174  2.00
   8882.00    8.174  2.00
   8884.00    8.174  2.00
   8886.00    8.173  2.00
   8888.00    8.173  2.00
   8890.00    8.173  2.00
   8892.00    8.173  2.00
   8894.00    8.173  2.00
   8896.00    8.173  2.00
   8898.00    8.172  2.00
   8900.00    8.172  2.00
   8902.00    8.172  2.00
   8904.00    8.172  2.00
   8906.00    8.172  2.00
   8908.00    8.172  2.00
   8910.00    8.172  2.00
   8912.00    8.171  2.00
   8914.00    8.171  2.00
   8916.00    8.171  2.00
   8918.00    8.171  2.00
   8920.00    8.171  2.00
   8922.00    8.171  2.00
   8924.00    8.170  2.00
   8926.00    8.170  2.00
   8928.00    8.170  2.00
   8930.00    8.170  2.00
   8932.00    8.170  2.00
   8934.00    8.170  2.00
   8936.00    8.170  2.00
   8938.00    8.169  2.00
   8940.00    8.169  2.00
   8942.00    8.169  2.00
   8944.00    8.169  2.00
   8946.00    8.169  2.00
   8948.00    8.169  2.00
   8950.00    8.169  2.00
   8952.00    8.168  2.00
   8954.00    8.168  2.00
   8956.00    8.168  2.00
   8958.00    8.168  2.00
   8960.00    8.168  2.00
   8962.00    8.168  2.00
   8964.00    8.167  2.00
   8966.00    8.167  2.00
   8968.00    8.167  2.00
   8970.00    8.167  2.00
   8972.00    8.167  2.00
   8974.00    8.167  2.00
   8976.00    8.167  2.00
   8978.00    8.166  2.00
   8980.00    8.166  2.00
   8982.00    8.166  2.00
   8984.00    8.166  2.00
   8986.00    8.166  2.00
   8988.00    8.166  2.00
   8990.00    8.166  2.00
   8992.00    8.165  2.00
   8994.00    8.165  2.00
   8996.00    8.165  2.00
   8998.00    8.165  2.00
   9000.00    8.165  2.00
   9002.00    8.165  2.00
   9004.00    8.165  2.00
   9006.00    8.164  2.00
   9008.00    8.164  2.00
   9010.00    8.164  2.00
   9012.00    8.164  2.00
   9014.00    8.164  2.00
   9016.00    8.164  2.00
   9018.00    8.164  2.00
   9020.00    8.163  2.00
   9022.00    8.163  2.00
   9024.00    8.163  2.00
   9026.00    8.163  2.00
   9028.00    8.163  2.00
   9030.00    8.163  2.00
   9032.00    8.163  2.00
   9034.00    8.162  2.00
   9036.00    8.162  2.00
   9038.00    8.162  2.00
   9040.00    8.162  2.00
   9042.00    8.162  2.00
   9044.00    8.162  2.00
   9046.00    8.162  2.00
   9048.00    8.161  2.00
   9050.00    8.161  2.00
   9052.00    8.161  2.00
   9054.00    8.161  2.00
   9056.00    8.161  2.00
   9058.00    8.161  2.00
   9060.00    8.161  2.00
   9062.00    8.160  2.00
   9064.00    8.160  2.00
   9066.00    8.160  2.00
   9068.00    8.160  2.00
   9070.00    8.160  2.00
   9072.00    8.160  2.00
   9074.00    8.160  2.00
   9076.00    8.160  2.00
   9078.00    8.159  2.00
   9080.00    8.159  2.00
   9082.00    8.159  2.00
   9084.00    8.159  2.00
   9086.00    8.159  2.00
   9088.00    8.159  2.00
   9090.00    8.159  2.00
   9092.00    8.158  2.00
   9094.00    8.158  2.00
   9096.00    8.158  2.00
   9098.00    8.158  2.00
   9100.00    8.158  2.00
   9102.00    8.158  2.00
   9104.00    8.158  2.00
   9106.00    8.157  2.00
   9108.00    8.157  2.00
   9110.00    8.157  2.00
   9112.00    8.157  2.00
   9114.00    8.157  2.00
   9116.00    8.157  2.00
   9118.00    8.157  2.00
   9120.00    8.157  2.00
   9122.00    8.156  2.00
   9124.00    8.156  2.00
   9126.00    8.156  2.00
   9128.00    8.156  2.00
   9130.00    8.156  2.00
   9132.00    8.156  2.00
   9134.00    8.156  2.00
   9136.00    8.155  2.00
   9138.00    8.155  2.00
   9140.00    8.155  2.00
   9142.00    8.155  2.00
   9144.00    8.155  2.00
   9146.00    8.155  2.00
   9148.00    8.155  2.00
   9150.00    8.155  2.00
   9152.00    8.155  2.00
   9154.00    8.154  2.00
   9156.00    8.154  2.00
   9158.00    8.154  2.00
   9160.00    8.154  2.00
   9162.00    8.154  2.00
   9164.00    8.154  2.00
   9166.00    8.154  2.00
   9168.00    8.154  2.00
   9170.00    8.154  2.00
   9172.00    8.154  2.00
   9174.00    8.154  2.00
   9176.00    8.154  2.00
   9178.00    8.153  2.00
   9180.00    8.153  2.00
   9182.00    8.153  2.00
   9184.00    8.153  2.00
   9186.00    8.153  2.00
   9188.00    8.153  2.00
   9190.00    8.153  2.00
   9192.00    8.153  2.00
   9194.00    8.153  2.00
   9196.00    8.153  2.00
   9198.00    8.153  2.00
   9200.00    8.153  2.00
   9202.00    8.152  2.00
   9204.00    8.152  2.00
   9206.00    8.152  2.00
   9208.00    8.152  2.00
   9210.00    8.152  2.00
   9212.00    8.152  2.00
   9214.00    8.152  2.00
   9216.00    8.152  2.00
   9218.00    8.152  2.00
   9220.00    8.152  2.00
   9222.00    8.152  2.00
   9224.00    8.152  2.00
   9226.00    8.152  2.00
   9228.00    8.151  2.00
   9230.00    8.151  2.00
   9232.00    8.151  2.00
   9234.00    8.151  2.00
   9236.00    8.151  2.00
   9238.00    8.151  2.00
   9240.00    8.151  2.00
   9242.00    8.151  2.00
   9244.00    8.151  2.00
   9246.00    8.151  2.00
   9248.00    8.151  2.00
   9250.00    8.151  2.00
   9252.00    8.151  2.00
   9254.00    8.151  2.00
   9256.00    8.150  2.00
   9258.00    8.150  2.00
   9260.00    8.150  2.00
   9262.00    8.150  2.00
   9264.00    8.150  2.00
   9266.00    8.150  2.00
   9268.00    8.150  2.00
   9270.00    8.150  2.00
   9272.00    8.150  2.00
   9274.00    8.150  2.00
   9276.00    8.150  2.00
   9278.00    8.150  2.00
   9280.00    8.150  2.00
   9282.00    8.150  2.00
   9284.00    8.149  2.00
   9286.00    8.149  2.00
   9288.00    8.149  2.00
   9290.00    8.149  2.00
   9292.00    8.149  2.00
   9294.00    8.149  2.00
   9296.00    8.149  2.00
   9298.00    8.149  2.00
   9300.00    8.149  2.00
   9302.00    8.149  2.00
   9304.00    8.149  2.00
   9306.00    8.149  2.00
   9308.00    8.149  2.00
   9310.00    8.149  2.00
   9312.00    8.149  2.00
   9314.00    8.148  2.00
   9316.00    8.148  2.00
   9318.00    8.148  2.00
   9320.00    8.148  2.00
   9322.00    8.148  2.00
   9324.00    8.148  2.00
   9326.00    8.148  2.00
   9328.00    8.148  2.00
   9330.00    8.148  2.00
   9332.00    8.148  2.00
   9334.00    8.148  2.00
   9336.00    8.148  2.00
   9338.00    8.148  2.00
   9340.00    8.148  2.00
   9342.00    8.148  2.00
   9344.00    8.148  2.00
   9346.00    8.148  2.00
   9348.00    8.147  2.00
   9350.00    8.147  2.00
   9352.00    8.147  2.00
   9354.00    8.147  2.00
   9356.00    8.147  2.00
   9358.00    8.147  2.00
   9360.00    8.147  2.00
   9362.00    8.147  2.00
   9364.00    8.147  2.00
   9366.00    8.147  2.00
   9368.00    8.147  2.00
   9370.00    8.147  2.00
   9372.00    8.147  2.00
   9374.00    8.147  2.00
   9376.00    8.147  2.00
   9378.00    8.147  2.00
   9380.00    8.147  2.00
   9382.00    8.146  2.00
   9384.00    8.146  2.00
   9386.00    8.146  2.00
   9388.00    8.146  2.00
   9390.00    8.146  2.00
   9392.00    8.146  2.00
   9394.00    8.146  2.00
   9396.00    8.146  2.00
   9398.00    8.146  2.00
   9400.00    8.146  2.00
   9402.00    8.146  2.00
   9404.00    8.146  2.00
   9406.00    8.146  2.00
   9408.00    8.146  2.00
   9410.00    8.146  2.00
   9412.00    8.146  2.00
   9414.00    8.146  2.00
   9416.00    8.146  2.00
   9418.00    8.146  2.00
   9420.00    8.145  2.00
   9422.00    8.145  2.00
   9424.00    8.145  2.00
   9426.00    8.145  2.00
   9428.00    8.145  2.00
   9430.00    8.145  2.00
   9432.00    8.145  2.00
   9434.00    8.145  2.00
   9436.00    8.145  2.00
   9438.00    8.145  2.00
   9440.00    8.145  2.00
   9442.00    8.145  2.00
   9444.00    8.145  2.00
   9446.00    8.145  2.00
   9448.00    8.145  2.00
   9450.00    8.145  2.00
   9452.00    8.145  2.00
   9454.00    8.145  2.00
   9456.00    8.145  2.00
   9458.00    8.145  2.00
   9460.00    8.144  2.00
   9462.00    8.144  2.00
   9464.00    8.144  2.00
   9466.00    8.144  2.00
   9468.00    8.144  2.00
   9470.00    8.144  2.00
   9472.00    8.144  2.00
   9474.00    8.144  2.00
   9476.00    8.144  2.00
   9478.00    8.144  2.00
   9480.00    8.144  2.00
   9482.00    8.144  2.00
   9484.00    8.144  2.00
   9486.00    8.144  2.00
   9488.00    8.144  2.00
   9490.00    8.144  2.00
   9492.00    8.144  2.00
   9494.00    8.144  2.00
   9496.00    8.144  2.00
   9498.00    8.144  2.00
   9500.00    8.144  2.00
   9502.00    8.144  2.00
   9504.00    8.144  2.00
   9506.00    8.143  2.00
   9508.00    8.143  2.00
   9510.00    8.143  2.00
   9512.00    8.143  2.00
   9514.00    8.143  2.00
   9516.00    8.143  2.00
   9518.00    8.143  2.00
   9520.00    8.143  2.00
   9522.00    8.143  2.00
   9524.00    8.143  2.00
   9526.00    8.143  2.00
   9528.00    8.143  2.00
   9530.00    8.143  2.00
   9532.00    8.143  2.00
   9534.00    8.143  2.00
   9536.00    8.143  2.00
   9538.00    8.143  2.00
   9540.00    8.143  2.00
   9542.00    8.143  2.00
   9544.00    8.143  2.00
   9546.00    8.143  2.00
   9548.00    8.143  2.00
   9550.00    8.143  2.00
   9552.00    8.143  2.00
   9554.00    8.143  2.00
   9556.00    8.143  2.00
   9558.00    8.143  2.00
   9560.00    8.143  2.00
   9562.00    8.142  2.00
   9564.00    8.142  2.00
   9566.00    8.142  2.00
   9568.00    8.142  2.00
   9570.00    8.142  2.00
   9572.00    8.142  2.00
   9574.00    8.142  2.00
   9576.00    8.142  2.00
   9578.00    8.142  2.00
   9580.00    8.142  2.00
   9582.00    8.142  2.00
   9584.00    8.142  2.00
   9586.00    8.142  2.00
   9588.00    8.142  2.00
   9590.00    8.142  2.00
   9592.00    8.142  2.00
   9594.00    8.142  2.00
   9596.00    8.142  2.00
   9598.00    8.142  2.00
   9600.00    8.142  2.00
   9602.00    8.142  2.00
   9604.00    8.142  2.00
   9606.00    8.142  2.00
   9608.00    8.142  2.00
   9610.00    8.142  2.00
   9612.00    8.142  2.00
   9614.00    8.142  2.00
   9616.00    8.142  2.00
   9618.00    8.142  2.00
   9620.00    8.142  2.00
   9622.00    8.142  2.00
   9624.00    8.142  2.00
   9626.00    8.142  2.00
   9628.00    8.142  2.00
   9630.00    8.142  2.00
   9632.00    8.141  2.00
   9634.00    8.141  2.00
   9636.00    8.141  2.00
   9638.00    8.141  2.00
   9640.00    8.141  2.00
   9642.00    8.141  2.00
   9644.00    8.141  2.00
   9646.00    8.141  2.00
   9648.00    8.141  2.00
   9650.00    8.141  2.00
   9652.00    8.141  2.00
   9654.00    8.141  2.00
   9656.00    8.141  2.00
   9658.00    8.141  2.00
   9660.00    8.141  2.00
   9662.00    8.141  2.00
   9664.00    8.141  2.00
   9666.00    8.141  2.00
   9668.00    8.141  2.00
   9670.00    8.141  2.00
   9672.00    8.141  2.00
   9674.00    8.141  2.00
   9676.00    8.141  2.00
   9678.00    8.141  2.00
   9680.00    8.141  2.00
   9682.00    8.141  2.00
   9684.00    8.141  2.00
   9686.00    8.141  2.00
   9688.00    8.141  2.00
   9690.00    8.141  2.00
   9692.00    8.141  2.00
   9694.00    8.141  2.00
   9696.00    8.141  2.00
   9698.00    8.141  2.00
   9700.00    8.141  2.00
   9702.00    8.141  2.00
   9704.00    8.141  2.00
   9706.00    8.141  2.00
   9708.00    8.141  2.00
   9710.00    8.141  2.00
   9712.00    8.141  2.00
   9714.00    8.141  2.00
   9716.00    8.141  2.00
   9718.00    8.141  2.00
   9720.00    8.141  2.00
   9722.00    8.141  2.00
   9724.00    8.141  2.00
   9726.00    8.141  2.00
   9728.00    8.141  2.00
   9730.00    8.141  2.00
   9732.00    8.141  2.00
   9734.00    8.141  2.00
   9736.00    8.141  2.00
   9738.00    8.141  2.00
   9740.00    8.141  2.00
   9742.00    8.141  2.00
   9744.00    8.141  2.00
   9746.00    8.141  2.00
   9748.00    8.141  2.00
   9750.00    8.141  2.00
   9752.00    8.141  2.00
   9754.00    8.141  2.00
   9756.00    8.141  2.00
   9758.00    8.141  2.00
   9760.00    8.141  2.00
   9762.00    8.141  2.00
   9764.00    8.141  2.00
   9766.00    8.141  2.00
   9768.00    8.140  2.00
   9770.00    8.140  2.00
   9772.00    8.140  2.00
   9774.00    8.140  2.00
   9776.00    8.140  2.00
   9778.00    8.140  2.00
   9780.00    8.141  2.00
   9782.00    8.141  2.00
   9784.00    8.141  2.00
   9786.00    8.141  2.00
   9788.00    8.141  2.00
   9790.00    8.141  2.00
   9792.00    8.141  2.00
   9794.00    8.141  2.00
   9796.00    8.141  2.00
   9798.00    8.141  2.00
   9800.00    8.141  2.00
   9802.00    8.141  2.00
   9804.00    8.141  2.00
   9806.00    8.141  2.00
   9808.00    8.141  2.00
   9810.00    8.141  2.00
   9812.00    8.141  2.00
   9814.00    8.141  2.00
   9816.00    8.141  2.00
   9818.00    8.141  2.00
   9820.00    8.141  2.00
   9822.00    8.141  2.00
   9824.00    8.141  2.00
   9826.00    8.141  2.00
   9828.00    8.141  2.00
   9830.00    8.141  2.00
   9832.00    8.141  2.00
   9834.00    8.141  2.00
   9836.00    8.141  2.00
   9838.00    8.141  2.00
   9840.00    8.141  2.00
   9842.00    8.141  2.00
   9844.00    8.142  2.00
   9846.00    8.142  2.00
   9848.00    8.142  2.00
   9850.00    8.142  2.00
   9852.00    8.142  2.00
   9854.00    8.142  2.00
   9856.00    8.142  2.00
   9858.00    8.142  2.00
   9860.00    8.142  2.00
   9862.00    8.142  2.00
   9864.00    8.142  2.00
   9866.00    8.142  2.00
   9868.00    8.142  2.00
   9870.00    8.142  2.00
   9872.00    8.142  2.00
   9874.00    8.142  2.00
   9876.00    8.142  2.00
   9878.00    8.142  2.00
   9880.00    8.142  2.00
   9882.00    8.142  2.00
   9884.00    8.142  2.00
   9886.00    8.142  2.00
   9888.00    8.142  2.00
   9890.00    8.142  2.00
   9892.00    8.142  2.00
   9894.00    8.143  2.00
   9896.00    8.143  2.00
   9898.00    8.161  2.00
   9900.00    8.154  2.00
